global time,time(in ms),AccX,AccY,AccZ,GyroX,GyroY,GyroZ,QuatX,QuatY,QuatZ,QuatW
17/07/11 05:04:34:240,7,-0.7631836,0.025390625,0.5727539,-0.032990977,-0.044697456,0.0042569004,0.013183594,0.44677734,4.8828125E-4,0.89404297
17/07/11 05:04:34:245,12,-0.7631836,0.025390625,0.5727539,-0.032990977,-0.044697456,0.0042569004,0.013183594,0.44677734,4.8828125E-4,0.89404297
17/07/11 05:04:34:250,17,-0.7631836,0.025390625,0.5727539,-0.032990977,-0.044697456,0.0042569004,0.013183594,0.44677734,4.8828125E-4,0.89404297
17/07/11 05:04:34:256,23,-0.7631836,0.025390625,0.5727539,-0.032990977,-0.044697456,0.0042569004,0.013183594,0.44677734,4.8828125E-4,0.89404297
17/07/11 05:04:34:261,28,-0.7631836,0.025390625,0.5727539,-0.032990977,-0.044697456,0.0042569004,0.013183594,0.44677734,4.8828125E-4,0.89404297
17/07/11 05:04:34:266,33,-0.7631836,0.025390625,0.5727539,-0.032990977,-0.044697456,0.0042569004,0.013183594,0.44677734,4.8828125E-4,0.89404297
17/07/11 05:04:34:271,38,-0.7644043,0.025878906,0.5727539,-0.03192675,-0.044697456,0.0042569004,0.0126953125,0.44677734,0.0,0.89404297
17/07/11 05:04:34:277,44,-0.7663574,0.021972656,0.5751953,-0.032990977,-0.044697456,0.0042569004,0.014160156,0.44677734,9.765625E-4,0.89404297
17/07/11 05:04:34:283,50,-0.7590332,0.024414063,0.5749512,-0.03192675,-0.04576168,0.0031926753,0.014160156,0.44677734,4.8828125E-4,0.89453125
17/07/11 05:04:34:288,55,-0.7590332,0.024414063,0.5749512,-0.03192675,-0.04576168,0.0031926753,0.013183594,0.44677734,4.8828125E-4,0.89453125
17/07/11 05:04:34:293,60,-0.7590332,0.024414063,0.5749512,-0.03192675,-0.04576168,0.0031926753,0.013183594,0.44677734,4.8828125E-4,0.89453125
17/07/11 05:04:34:300,67,-0.7590332,0.024414063,0.5749512,-0.03192675,-0.04576168,0.0031926753,0.013183594,0.44677734,4.8828125E-4,0.89453125
17/07/11 05:04:34:306,73,-0.7590332,0.024414063,0.5749512,-0.03192675,-0.04576168,0.0031926753,0.013183594,0.44677734,4.8828125E-4,0.89453125
17/07/11 05:04:34:312,79,-0.76782227,0.024169922,0.5686035,-0.03192675,-0.044697456,0.0042569004,0.013671875,0.44726563,4.8828125E-4,0.89404297
17/07/11 05:04:34:323,90,-0.75927734,0.023925781,0.5710449,-0.034055203,-0.044697456,0.0031926753,0.013671875,0.44726563,4.8828125E-4,0.89404297
17/07/11 05:04:34:340,107,-0.7609863,0.024414063,0.5722656,-0.034055203,-0.04363323,0.0042569004,0.013671875,0.44726563,4.8828125E-4,0.89404297
17/07/11 05:04:34:345,112,-0.7651367,0.025146484,0.5732422,-0.032990977,-0.04576168,0.0063853506,0.013671875,0.44677734,4.8828125E-4,0.89453125
17/07/11 05:04:34:351,118,-0.7651367,0.025146484,0.5732422,-0.032990977,-0.04576168,0.0063853506,0.013671875,0.44677734,4.8828125E-4,0.89453125
17/07/11 05:04:34:357,124,-0.76342773,0.024902344,0.5744629,-0.032990977,-0.044697456,0.0042569004,0.014160156,0.44726563,9.765625E-4,0.89404297
17/07/11 05:04:34:365,132,-0.765625,0.026367188,0.57128906,-0.032990977,-0.044697456,0.0042569004,0.013671875,0.44628906,9.765625E-4,0.89453125
17/07/11 05:04:34:370,137,-0.765625,0.026367188,0.57128906,-0.032990977,-0.044697456,0.0042569004,0.013671875,0.44628906,9.765625E-4,0.89453125
17/07/11 05:04:34:375,142,-0.76220703,0.028564453,0.5710449,-0.032990977,-0.04363323,0.0042569004,0.014160156,0.44726563,9.765625E-4,0.89404297
17/07/11 05:04:34:380,147,-0.76220703,0.028564453,0.5710449,-0.032990977,-0.04363323,0.0042569004,0.014160156,0.44726563,9.765625E-4,0.89404297
17/07/11 05:04:34:386,153,-0.7648926,0.024902344,0.57055664,-0.032990977,-0.044697456,0.0053211255,0.0146484375,0.44726563,0.0014648438,0.89404297
17/07/11 05:04:34:390,157,-0.7648926,0.024902344,0.57055664,-0.032990977,-0.044697456,0.0053211255,0.0146484375,0.44726563,0.0014648438,0.89404297
17/07/11 05:04:34:395,162,-0.767334,0.028320313,0.5727539,-0.034055203,-0.04363323,0.0063853506,0.0146484375,0.44726563,9.765625E-4,0.89404297
17/07/11 05:04:34:400,167,-0.767334,0.028320313,0.5727539,-0.034055203,-0.04363323,0.0063853506,0.0146484375,0.44726563,9.765625E-4,0.89404297
17/07/11 05:04:34:406,173,-0.76660156,0.02368164,0.56811523,-0.034055203,-0.044697456,0.0042569004,0.015136719,0.4477539,0.0014648438,0.89404297
17/07/11 05:04:34:411,178,-0.76660156,0.02368164,0.56811523,-0.034055203,-0.044697456,0.0042569004,0.015136719,0.4477539,0.0014648438,0.89404297
17/07/11 05:04:34:416,183,-0.7631836,0.025878906,0.57421875,-0.032990977,-0.044697456,0.0063853506,0.0146484375,0.4482422,9.765625E-4,0.8935547
17/07/11 05:04:34:421,188,-0.7631836,0.025878906,0.57421875,-0.032990977,-0.044697456,0.0063853506,0.0146484375,0.4482422,9.765625E-4,0.8935547
17/07/11 05:04:34:426,193,-0.76342773,0.028320313,0.57373047,-0.032990977,-0.04576168,0.0053211255,0.0146484375,0.4477539,9.765625E-4,0.89404297
17/07/11 05:04:34:432,199,-0.76342773,0.028320313,0.57373047,-0.032990977,-0.04576168,0.0053211255,0.0146484375,0.4477539,9.765625E-4,0.89404297
17/07/11 05:04:34:437,204,-0.765625,0.024169922,0.5727539,-0.032990977,-0.04576168,0.0053211255,0.0146484375,0.44726563,0.0014648438,0.89404297
17/07/11 05:04:34:442,209,-0.765625,0.024169922,0.5727539,-0.032990977,-0.04576168,0.0053211255,0.0146484375,0.44726563,0.0014648438,0.89404297
17/07/11 05:04:34:448,215,-0.7636719,0.026855469,0.5695801,-0.030862529,-0.04576168,0.0053211255,0.014160156,0.44726563,9.765625E-4,0.89404297
17/07/11 05:04:34:453,220,-0.7636719,0.026855469,0.5695801,-0.030862529,-0.04576168,0.0053211255,0.014160156,0.44726563,9.765625E-4,0.89404297
17/07/11 05:04:34:459,226,-0.7636719,0.026855469,0.5695801,-0.030862529,-0.04576168,0.0053211255,0.014160156,0.44726563,9.765625E-4,0.89404297
17/07/11 05:04:34:464,231,-0.7636719,0.026855469,0.5695801,-0.030862529,-0.04576168,0.0053211255,0.014160156,0.44726563,9.765625E-4,0.89404297
17/07/11 05:04:34:469,236,-0.7636719,0.026855469,0.5695801,-0.030862529,-0.04576168,0.0053211255,0.014160156,0.44726563,9.765625E-4,0.89404297
17/07/11 05:04:34:474,241,-0.7636719,0.026855469,0.5695801,-0.030862529,-0.04576168,0.0053211255,0.014160156,0.44726563,9.765625E-4,0.89404297
17/07/11 05:04:34:479,246,-0.7636719,0.026855469,0.5695801,-0.030862529,-0.04576168,0.0053211255,0.014160156,0.44726563,9.765625E-4,0.89404297
17/07/11 05:04:34:484,251,-0.76538086,0.025878906,0.57006836,-0.03192675,-0.044697456,0.0053211255,0.0146484375,0.4477539,9.765625E-4,0.89404297
17/07/11 05:04:34:491,258,-0.7648926,0.024414063,0.5703125,-0.032990977,-0.044697456,0.0053211255,0.014160156,0.44726563,9.765625E-4,0.89404297
17/07/11 05:04:34:497,264,-0.7709961,0.024902344,0.57006836,-0.034055203,-0.044697456,0.0063853506,0.013671875,0.4477539,4.8828125E-4,0.89404297
17/07/11 05:04:34:503,270,-0.7709961,0.024902344,0.57006836,-0.034055203,-0.044697456,0.0063853506,0.013671875,0.4477539,4.8828125E-4,0.89404297
17/07/11 05:04:34:508,275,-0.7709961,0.024902344,0.57006836,-0.034055203,-0.044697456,0.0063853506,0.013671875,0.4477539,4.8828125E-4,0.89404297
17/07/11 05:04:34:514,281,-0.7709961,0.024902344,0.57006836,-0.034055203,-0.044697456,0.0063853506,0.013671875,0.4477539,4.8828125E-4,0.89404297
17/07/11 05:04:34:520,287,-0.7709961,0.024902344,0.57006836,-0.034055203,-0.044697456,0.0063853506,0.013671875,0.4477539,4.8828125E-4,0.89404297
17/07/11 05:04:34:525,292,-0.7614746,0.025390625,0.57250977,-0.032990977,-0.044697456,0.0063853506,0.013671875,0.4482422,4.8828125E-4,0.8935547
17/07/11 05:04:34:532,299,-0.7614746,0.025390625,0.57250977,-0.032990977,-0.044697456,0.0063853506,0.013671875,0.4482422,4.8828125E-4,0.8935547
17/07/11 05:04:34:538,305,-0.76586914,0.022705078,0.56933594,-0.032990977,-0.044697456,0.0042569004,0.014160156,0.4477539,9.765625E-4,0.89404297
17/07/11 05:04:34:543,310,-0.765625,0.024658203,0.5732422,-0.03192675,-0.044697456,0.0031926753,0.014160156,0.4477539,9.765625E-4,0.89404297
17/07/11 05:04:34:548,315,-0.765625,0.024658203,0.5732422,-0.03192675,-0.044697456,0.0031926753,0.013671875,0.4482422,4.8828125E-4,0.8935547
17/07/11 05:04:34:555,322,-0.76342773,0.026855469,0.57177734,-0.03192675,-0.044697456,0.0042569004,0.013671875,0.44726563,4.8828125E-4,0.89404297
17/07/11 05:04:34:560,327,-0.76342773,0.026855469,0.57177734,-0.03192675,-0.044697456,0.0042569004,0.013671875,0.44726563,4.8828125E-4,0.89404297
17/07/11 05:04:34:566,333,-0.7590332,0.023925781,0.5703125,-0.03192675,-0.044697456,0.0042569004,0.013671875,0.44726563,4.8828125E-4,0.89404297
17/07/11 05:04:34:571,338,-0.7590332,0.023925781,0.5703125,-0.03192675,-0.044697456,0.0042569004,0.014160156,0.44726563,9.765625E-4,0.89404297
17/07/11 05:04:34:576,343,-0.7590332,0.023925781,0.5703125,-0.03192675,-0.044697456,0.0042569004,0.014160156,0.44726563,9.765625E-4,0.89404297
17/07/11 05:04:34:582,349,-0.7590332,0.023925781,0.5703125,-0.03192675,-0.044697456,0.0042569004,0.014160156,0.44726563,9.765625E-4,0.89404297
17/07/11 05:04:34:586,353,-0.7590332,0.023925781,0.5703125,-0.03192675,-0.044697456,0.0042569004,0.014160156,0.44726563,9.765625E-4,0.89404297
17/07/11 05:04:34:591,358,-0.7590332,0.023925781,0.5703125,-0.03192675,-0.044697456,0.0042569004,0.014160156,0.44726563,9.765625E-4,0.89404297
17/07/11 05:04:34:596,363,-0.7590332,0.023925781,0.5703125,-0.03192675,-0.044697456,0.0042569004,0.014160156,0.44726563,9.765625E-4,0.89404297
17/07/11 05:04:34:602,369,-0.7590332,0.023925781,0.5703125,-0.03192675,-0.044697456,0.0042569004,0.014160156,0.44726563,9.765625E-4,0.89404297
17/07/11 05:04:34:607,374,-0.7590332,0.023925781,0.5703125,-0.03192675,-0.044697456,0.0042569004,0.014160156,0.44726563,9.765625E-4,0.89404297
17/07/11 05:04:34:612,379,-0.7590332,0.023925781,0.5703125,-0.03192675,-0.044697456,0.0042569004,0.014160156,0.44726563,9.765625E-4,0.89404297
17/07/11 05:04:34:617,384,-0.7590332,0.023925781,0.5703125,-0.03192675,-0.044697456,0.0042569004,0.014160156,0.44726563,9.765625E-4,0.89404297
17/07/11 05:04:34:622,389,-0.7590332,0.023925781,0.5703125,-0.03192675,-0.044697456,0.0042569004,0.014160156,0.44726563,9.765625E-4,0.89404297
17/07/11 05:04:34:627,394,-0.76000977,0.025146484,0.5720215,-0.032990977,-0.044697456,0.0042569004,0.014160156,0.4477539,9.765625E-4,0.8935547
17/07/11 05:04:34:632,399,-0.76000977,0.025146484,0.5720215,-0.032990977,-0.044697456,0.0042569004,0.014160156,0.4477539,9.765625E-4,0.8935547
17/07/11 05:04:34:637,404,-0.76000977,0.025146484,0.5720215,-0.032990977,-0.044697456,0.0042569004,0.014160156,0.4477539,9.765625E-4,0.8935547
17/07/11 05:04:34:642,409,-0.76000977,0.025146484,0.5720215,-0.032990977,-0.044697456,0.0042569004,0.014160156,0.4477539,9.765625E-4,0.8935547
17/07/11 05:04:34:647,414,-0.76000977,0.025146484,0.5720215,-0.032990977,-0.044697456,0.0042569004,0.014160156,0.4477539,9.765625E-4,0.8935547
17/07/11 05:04:34:652,419,-0.76000977,0.025146484,0.5720215,-0.032990977,-0.044697456,0.0042569004,0.014160156,0.4477539,9.765625E-4,0.8935547
17/07/11 05:04:34:657,424,-0.76000977,0.025146484,0.5720215,-0.032990977,-0.044697456,0.0042569004,0.014160156,0.4477539,9.765625E-4,0.8935547
17/07/11 05:04:34:663,430,-0.76000977,0.025146484,0.5720215,-0.032990977,-0.044697456,0.0042569004,0.014160156,0.4477539,9.765625E-4,0.8935547
17/07/11 05:04:34:668,435,-0.76000977,0.025146484,0.5720215,-0.032990977,-0.044697456,0.0042569004,0.014160156,0.4477539,9.765625E-4,0.8935547
17/07/11 05:04:34:673,440,-0.76000977,0.025146484,0.5720215,-0.032990977,-0.044697456,0.0042569004,0.014160156,0.4477539,9.765625E-4,0.8935547
17/07/11 05:04:34:678,445,-0.76000977,0.025146484,0.5720215,-0.032990977,-0.044697456,0.0042569004,0.014160156,0.4477539,9.765625E-4,0.8935547
17/07/11 05:04:34:683,450,-0.7663574,0.026611328,0.5683594,-0.032990977,-0.044697456,0.0053211255,0.013183594,0.44628906,4.8828125E-4,0.89453125
17/07/11 05:04:34:688,455,-0.7663574,0.026611328,0.5683594,-0.032990977,-0.044697456,0.0053211255,0.013183594,0.44628906,4.8828125E-4,0.89453125
17/07/11 05:04:34:693,460,-0.7663574,0.026611328,0.5683594,-0.032990977,-0.044697456,0.0053211255,0.013183594,0.44628906,4.8828125E-4,0.89453125
17/07/11 05:04:34:699,466,-0.7663574,0.026611328,0.5683594,-0.032990977,-0.044697456,0.0053211255,0.013183594,0.44628906,4.8828125E-4,0.89453125
17/07/11 05:04:34:704,471,-0.7663574,0.026611328,0.5683594,-0.032990977,-0.044697456,0.0053211255,0.013183594,0.44628906,4.8828125E-4,0.89453125
17/07/11 05:04:34:709,476,-0.7663574,0.026611328,0.5683594,-0.032990977,-0.044697456,0.0053211255,0.013183594,0.44628906,4.8828125E-4,0.89453125
17/07/11 05:04:34:714,481,-0.7663574,0.026611328,0.5683594,-0.032990977,-0.044697456,0.0053211255,0.013183594,0.44628906,4.8828125E-4,0.89453125
17/07/11 05:04:34:719,486,-0.7663574,0.026611328,0.5683594,-0.032990977,-0.044697456,0.0053211255,0.013183594,0.44628906,4.8828125E-4,0.89453125
17/07/11 05:04:34:725,492,-0.7663574,0.026611328,0.5683594,-0.032990977,-0.044697456,0.0053211255,0.013183594,0.44628906,4.8828125E-4,0.89453125
17/07/11 05:04:34:729,496,-0.7663574,0.026611328,0.5683594,-0.032990977,-0.044697456,0.0053211255,0.013183594,0.44628906,4.8828125E-4,0.89453125
17/07/11 05:04:34:734,501,-0.76586914,0.025878906,0.5710449,-0.03511943,-0.044697456,0.0031926753,0.014160156,0.44726563,9.765625E-4,0.89404297
17/07/11 05:04:34:739,506,-0.7624512,0.02734375,0.5695801,-0.032990977,-0.044697456,0.0053211255,0.0146484375,0.44726563,9.765625E-4,0.89404297
17/07/11 05:04:34:744,511,-0.7624512,0.02734375,0.5695801,-0.032990977,-0.044697456,0.0053211255,0.0146484375,0.44726563,9.765625E-4,0.89404297
17/07/11 05:04:34:749,516,-0.7624512,0.02734375,0.5695801,-0.032990977,-0.044697456,0.0053211255,0.0146484375,0.44726563,9.765625E-4,0.89404297
17/07/11 05:04:34:755,522,-0.7624512,0.02734375,0.5695801,-0.032990977,-0.044697456,0.0053211255,0.0146484375,0.44726563,9.765625E-4,0.89404297
17/07/11 05:04:34:761,528,-0.76904297,0.024169922,0.5727539,-0.032990977,-0.044697456,0.0042569004,0.0146484375,0.44726563,9.765625E-4,0.89404297
17/07/11 05:04:34:767,534,-0.76904297,0.024169922,0.5727539,-0.032990977,-0.044697456,0.0042569004,0.0146484375,0.44726563,9.765625E-4,0.89404297
17/07/11 05:04:34:773,540,-0.76904297,0.024169922,0.5727539,-0.032990977,-0.044697456,0.0042569004,0.0146484375,0.44726563,9.765625E-4,0.89404297
17/07/11 05:04:34:778,545,-0.76220703,0.024658203,0.57421875,-0.03192675,-0.044697456,0.0042569004,0.0146484375,0.44726563,9.765625E-4,0.89404297
17/07/11 05:04:34:783,550,-0.76171875,0.024902344,0.5739746,-0.032990977,-0.044697456,0.0053211255,0.013671875,0.44726563,4.8828125E-4,0.89404297
17/07/11 05:04:34:788,555,-0.7585449,0.02758789,0.5732422,-0.032990977,-0.04576168,0.0042569004,0.013671875,0.44677734,4.8828125E-4,0.89453125
17/07/11 05:04:34:793,560,-0.7648926,0.023925781,0.56933594,-0.034055203,-0.044697456,0.0053211255,0.013671875,0.44677734,4.8828125E-4,0.89453125
17/07/11 05:04:34:798,565,-0.7648926,0.023925781,0.56933594,-0.034055203,-0.044697456,0.0053211255,0.014160156,0.44628906,9.765625E-4,0.89453125
17/07/11 05:04:34:803,570,-0.76220703,0.02709961,0.56884766,-0.032990977,-0.044697456,0.0042569004,0.014160156,0.44677734,9.765625E-4,0.89453125
17/07/11 05:04:34:808,575,-0.76220703,0.02709961,0.56884766,-0.032990977,-0.044697456,0.0042569004,0.014160156,0.44677734,9.765625E-4,0.89453125
17/07/11 05:04:34:813,580,-0.7648926,0.024169922,0.57177734,-0.032990977,-0.044697456,0.0031926753,0.0146484375,0.44726563,9.765625E-4,0.89404297
17/07/11 05:04:34:818,585,-0.7648926,0.024169922,0.57177734,-0.032990977,-0.044697456,0.0031926753,0.0146484375,0.44726563,9.765625E-4,0.89404297
17/07/11 05:04:34:823,590,-0.7565918,0.02758789,0.5744629,-0.032990977,-0.044697456,0.0042569004,0.013671875,0.44726563,4.8828125E-4,0.89404297
17/07/11 05:04:34:828,595,-0.7565918,0.02758789,0.5744629,-0.032990977,-0.044697456,0.0042569004,0.013671875,0.44726563,4.8828125E-4,0.89404297
17/07/11 05:04:34:833,600,-0.7614746,0.024658203,0.5749512,-0.032990977,-0.044697456,0.0053211255,0.014160156,0.44677734,9.765625E-4,0.89404297
17/07/11 05:04:34:838,605,-0.7614746,0.024658203,0.5749512,-0.032990977,-0.044697456,0.0053211255,0.014160156,0.44677734,9.765625E-4,0.89404297
17/07/11 05:04:34:843,610,-0.7614746,0.024658203,0.5749512,-0.032990977,-0.044697456,0.0053211255,0.014160156,0.44677734,9.765625E-4,0.89404297
17/07/11 05:04:34:848,615,-0.7614746,0.024658203,0.5749512,-0.032990977,-0.044697456,0.0053211255,0.014160156,0.44677734,9.765625E-4,0.89404297
17/07/11 05:04:34:853,620,-0.7614746,0.024658203,0.5749512,-0.032990977,-0.044697456,0.0053211255,0.014160156,0.44677734,9.765625E-4,0.89404297
17/07/11 05:04:34:859,626,-0.7614746,0.024658203,0.5749512,-0.032990977,-0.044697456,0.0053211255,0.014160156,0.44677734,9.765625E-4,0.89404297
17/07/11 05:04:34:863,630,-0.7614746,0.024658203,0.5749512,-0.032990977,-0.044697456,0.0053211255,0.014160156,0.44677734,9.765625E-4,0.89404297
17/07/11 05:04:34:868,635,-0.76416016,0.023925781,0.5739746,-0.032990977,-0.04363323,0.0063853506,0.013671875,0.44628906,4.8828125E-4,0.89453125
17/07/11 05:04:34:886,653,-0.7668457,0.024658203,0.5751953,-0.03192675,-0.04576168,0.0042569004,0.013671875,0.44677734,4.8828125E-4,0.89453125
17/07/11 05:04:34:892,659,-0.7668457,0.02368164,0.57177734,-0.032990977,-0.044697456,0.0042569004,0.014160156,0.44677734,9.765625E-4,0.89404297
17/07/11 05:04:34:897,664,-0.7668457,0.02368164,0.57177734,-0.032990977,-0.044697456,0.0042569004,0.014160156,0.44677734,9.765625E-4,0.89404297
17/07/11 05:04:34:902,669,-0.7668457,0.02368164,0.57177734,-0.032990977,-0.044697456,0.0042569004,0.014160156,0.44677734,9.765625E-4,0.89404297
17/07/11 05:04:34:907,674,-0.7668457,0.02368164,0.57177734,-0.032990977,-0.044697456,0.0042569004,0.014160156,0.44677734,9.765625E-4,0.89404297
17/07/11 05:04:34:912,679,-0.7668457,0.02368164,0.57177734,-0.032990977,-0.044697456,0.0042569004,0.014160156,0.44677734,9.765625E-4,0.89404297
17/07/11 05:04:34:917,684,-0.7668457,0.02368164,0.57177734,-0.032990977,-0.044697456,0.0042569004,0.014160156,0.44677734,9.765625E-4,0.89404297
17/07/11 05:04:34:925,692,-0.7668457,0.02368164,0.57177734,-0.032990977,-0.044697456,0.0042569004,0.014160156,0.44677734,9.765625E-4,0.89404297
17/07/11 05:04:34:931,698,-0.7609863,0.025390625,0.5732422,-0.034055203,-0.044697456,0.0053211255,0.0146484375,0.4477539,9.765625E-4,0.89404297
17/07/11 05:04:34:936,703,-0.76660156,0.025878906,0.5703125,-0.032990977,-0.04363323,0.0053211255,0.014160156,0.44677734,9.765625E-4,0.89453125
17/07/11 05:04:34:941,708,-0.76342773,0.026611328,0.5695801,-0.03192675,-0.04576168,0.0042569004,0.014160156,0.44726563,9.765625E-4,0.89404297
17/07/11 05:04:34:947,714,-0.76342773,0.026611328,0.5695801,-0.03192675,-0.04576168,0.0042569004,0.014160156,0.44726563,9.765625E-4,0.89404297
17/07/11 05:04:34:952,719,-0.76342773,0.026611328,0.5695801,-0.03192675,-0.04576168,0.0042569004,0.014160156,0.44726563,9.765625E-4,0.89404297
17/07/11 05:04:34:957,724,-0.76538086,0.029541016,0.57299805,-0.03192675,-0.044697456,0.0053211255,0.0146484375,0.4477539,9.765625E-4,0.89404297
17/07/11 05:04:34:962,729,-0.76538086,0.029541016,0.57299805,-0.03192675,-0.044697456,0.0053211255,0.0146484375,0.4477539,9.765625E-4,0.89404297
17/07/11 05:04:34:967,734,-0.76123047,0.025634766,0.57128906,-0.032990977,-0.044697456,0.0042569004,0.015136719,0.44726563,0.0014648438,0.89404297
17/07/11 05:04:34:972,739,-0.76123047,0.025634766,0.57128906,-0.032990977,-0.044697456,0.0042569004,0.015136719,0.44726563,0.0014648438,0.89404297
17/07/11 05:04:34:977,744,-0.7609863,0.025146484,0.5661621,-0.032990977,-0.044697456,0.0053211255,0.0146484375,0.44726563,9.765625E-4,0.89404297
17/07/11 05:04:34:982,749,-0.7609863,0.025146484,0.5661621,-0.032990977,-0.044697456,0.0053211255,0.0146484375,0.44726563,9.765625E-4,0.89404297
17/07/11 05:04:34:987,754,-0.7685547,0.028076172,0.56884766,-0.034055203,-0.04363323,0.0063853506,0.0146484375,0.4477539,9.765625E-4,0.89404297
17/07/11 05:04:34:992,759,-0.7685547,0.028076172,0.56884766,-0.034055203,-0.04363323,0.0063853506,0.0146484375,0.4477539,9.765625E-4,0.89404297
17/07/11 05:04:34:997,764,-0.765625,0.02709961,0.5734863,-0.032990977,-0.04363323,0.0053211255,0.0146484375,0.4482422,9.765625E-4,0.8935547
17/07/11 05:04:35:002,769,-0.765625,0.02709961,0.5734863,-0.032990977,-0.04363323,0.0053211255,0.0146484375,0.4482422,9.765625E-4,0.8935547
17/07/11 05:04:35:007,774,-0.75756836,0.025878906,0.56933594,-0.032990977,-0.04576168,0.0053211255,0.0146484375,0.4477539,9.765625E-4,0.89404297
17/07/11 05:04:35:012,779,-0.75756836,0.025878906,0.56933594,-0.032990977,-0.04576168,0.0053211255,0.0146484375,0.4477539,9.765625E-4,0.89404297
17/07/11 05:04:35:017,784,-0.76171875,0.026855469,0.5744629,-0.03192675,-0.044697456,0.0063853506,0.0146484375,0.44677734,9.765625E-4,0.89404297
17/07/11 05:04:35:022,789,-0.76171875,0.026855469,0.5744629,-0.03192675,-0.044697456,0.0063853506,0.0146484375,0.44677734,9.765625E-4,0.89404297
17/07/11 05:04:35:028,795,-0.7663574,0.026123047,0.57373047,-0.032990977,-0.044697456,0.0053211255,0.0146484375,0.44628906,9.765625E-4,0.89453125
17/07/11 05:04:35:033,800,-0.7663574,0.026123047,0.57373047,-0.032990977,-0.044697456,0.0053211255,0.0146484375,0.44628906,9.765625E-4,0.89453125
17/07/11 05:04:35:038,805,-0.7644043,0.0234375,0.5749512,-0.032990977,-0.04363323,0.0042569004,0.0146484375,0.44677734,9.765625E-4,0.89404297
17/07/11 05:04:35:043,810,-0.7644043,0.0234375,0.5749512,-0.032990977,-0.04363323,0.0042569004,0.0146484375,0.44677734,9.765625E-4,0.89404297
17/07/11 05:04:35:049,816,-0.76000977,0.02709961,0.5695801,-0.032990977,-0.04363323,0.0053211255,0.013671875,0.44677734,4.8828125E-4,0.89453125
17/07/11 05:04:35:055,822,-0.7663574,0.025146484,0.5751953,-0.032990977,-0.04363323,0.0063853506,0.0146484375,0.44677734,9.765625E-4,0.89404297
17/07/11 05:04:35:060,827,-0.7663574,0.025146484,0.5751953,-0.032990977,-0.04363323,0.0063853506,0.0146484375,0.44677734,9.765625E-4,0.89404297
17/07/11 05:04:35:065,832,-0.7663574,0.025146484,0.5751953,-0.032990977,-0.04363323,0.0063853506,0.0146484375,0.44677734,9.765625E-4,0.89404297
17/07/11 05:04:35:070,837,-0.7663574,0.025146484,0.5751953,-0.032990977,-0.04363323,0.0063853506,0.0146484375,0.44677734,9.765625E-4,0.89404297
17/07/11 05:04:35:075,842,-0.7663574,0.025146484,0.5751953,-0.032990977,-0.04363323,0.0063853506,0.0146484375,0.44677734,9.765625E-4,0.89404297
17/07/11 05:04:35:080,847,-0.7663574,0.025146484,0.5751953,-0.032990977,-0.04363323,0.0063853506,0.0146484375,0.44677734,9.765625E-4,0.89404297
17/07/11 05:04:35:085,852,-0.7663574,0.025146484,0.5751953,-0.032990977,-0.04363323,0.0063853506,0.0146484375,0.44677734,9.765625E-4,0.89404297
17/07/11 05:04:35:090,857,-0.7602539,0.026367188,0.5715332,-0.032990977,-0.04576168,0.0042569004,0.013671875,0.44677734,4.8828125E-4,0.89453125
17/07/11 05:04:35:095,862,-0.7614746,0.024902344,0.57128906,-0.034055203,-0.044697456,0.0042569004,0.0146484375,0.44677734,9.765625E-4,0.89404297
17/07/11 05:04:35:100,867,-0.7585449,0.026855469,0.564209,-0.032990977,-0.044697456,0.0042569004,0.013671875,0.44677734,4.8828125E-4,0.89453125
17/07/11 05:04:35:105,872,-0.76171875,0.026855469,0.5710449,-0.03192675,-0.044697456,0.0042569004,0.014160156,0.44726563,9.765625E-4,0.89404297
17/07/11 05:04:35:110,877,-0.76171875,0.026855469,0.5710449,-0.03192675,-0.044697456,0.0042569004,0.014160156,0.44726563,9.765625E-4,0.89404297
17/07/11 05:04:35:116,883,-0.76171875,0.026855469,0.5710449,-0.03192675,-0.044697456,0.0042569004,0.014160156,0.44726563,9.765625E-4,0.89404297
17/07/11 05:04:35:121,888,-0.76171875,0.026855469,0.5710449,-0.03192675,-0.044697456,0.0042569004,0.014160156,0.44726563,9.765625E-4,0.89404297
17/07/11 05:04:35:126,893,-0.76171875,0.026855469,0.5710449,-0.03192675,-0.044697456,0.0042569004,0.014160156,0.44726563,9.765625E-4,0.89404297
17/07/11 05:04:35:131,898,-0.76171875,0.026855469,0.5710449,-0.03192675,-0.044697456,0.0042569004,0.014160156,0.44726563,9.765625E-4,0.89404297
17/07/11 05:04:35:136,903,-0.76831055,0.025390625,0.5756836,-0.032990977,-0.04576168,0.0053211255,0.014160156,0.44726563,9.765625E-4,0.89404297
17/07/11 05:04:35:141,908,-0.7626953,0.026855469,0.5739746,-0.032990977,-0.04576168,0.0031926753,0.0146484375,0.44677734,9.765625E-4,0.89404297
17/07/11 05:04:35:146,913,-0.765625,0.026367188,0.57055664,-0.032990977,-0.04576168,0.0042569004,0.015136719,0.44677734,0.0014648438,0.89453125
17/07/11 05:04:35:151,918,-0.765625,0.026367188,0.57055664,-0.032990977,-0.04576168,0.0042569004,0.015136719,0.44677734,0.0014648438,0.89453125
17/07/11 05:04:35:156,923,-0.767334,0.024902344,0.5739746,-0.034055203,-0.044697456,0.0042569004,0.015136719,0.44726563,9.765625E-4,0.89404297
17/07/11 05:04:35:161,928,-0.767334,0.024902344,0.5739746,-0.034055203,-0.044697456,0.0042569004,0.015136719,0.44726563,9.765625E-4,0.89404297
17/07/11 05:04:35:166,933,-0.765625,0.02368164,0.57421875,-0.032990977,-0.044697456,0.0053211255,0.014160156,0.44726563,9.765625E-4,0.89404297
17/07/11 05:04:35:185,952,-0.7631836,0.025390625,0.56762695,-0.034055203,-0.044697456,0.0042569004,0.013671875,0.44677734,4.8828125E-4,0.89404297
17/07/11 05:04:35:190,957,-0.7631836,0.025390625,0.56762695,-0.034055203,-0.044697456,0.0042569004,0.013671875,0.44677734,4.8828125E-4,0.89404297
17/07/11 05:04:35:195,962,-0.7631836,0.025390625,0.56762695,-0.034055203,-0.044697456,0.0042569004,0.013671875,0.44677734,4.8828125E-4,0.89404297
17/07/11 05:04:35:201,968,-0.7631836,0.025390625,0.56762695,-0.034055203,-0.044697456,0.0042569004,0.013671875,0.44677734,4.8828125E-4,0.89404297
17/07/11 05:04:35:207,974,-0.7631836,0.025390625,0.56762695,-0.034055203,-0.044697456,0.0042569004,0.013671875,0.44677734,4.8828125E-4,0.89404297
17/07/11 05:04:35:212,979,-0.7631836,0.025390625,0.56762695,-0.034055203,-0.044697456,0.0042569004,0.013671875,0.44726563,4.8828125E-4,0.89404297
17/07/11 05:04:35:217,984,-0.7631836,0.025390625,0.56762695,-0.034055203,-0.044697456,0.0042569004,0.013671875,0.44726563,4.8828125E-4,0.89404297
17/07/11 05:04:35:222,989,-0.7631836,0.025390625,0.56762695,-0.034055203,-0.044697456,0.0042569004,0.013671875,0.44726563,4.8828125E-4,0.89404297
17/07/11 05:04:35:227,994,-0.7631836,0.025390625,0.56762695,-0.034055203,-0.044697456,0.0042569004,0.013671875,0.44726563,4.8828125E-4,0.89404297
17/07/11 05:04:35:232,999,-0.7631836,0.025390625,0.56762695,-0.034055203,-0.044697456,0.0042569004,0.013671875,0.44726563,4.8828125E-4,0.89404297
17/07/11 05:04:35:237,1004,-0.7631836,0.025390625,0.56762695,-0.034055203,-0.044697456,0.0042569004,0.013671875,0.44726563,4.8828125E-4,0.89404297
17/07/11 05:04:35:242,1009,-0.7631836,0.025390625,0.56762695,-0.034055203,-0.044697456,0.0042569004,0.013671875,0.44726563,4.8828125E-4,0.89404297
17/07/11 05:04:35:247,1014,-0.7631836,0.025390625,0.56762695,-0.034055203,-0.044697456,0.0042569004,0.013671875,0.44726563,4.8828125E-4,0.89404297
17/07/11 05:04:35:252,1019,-0.7631836,0.025390625,0.56762695,-0.034055203,-0.044697456,0.0042569004,0.013671875,0.44726563,4.8828125E-4,0.89404297
17/07/11 05:04:35:257,1024,-0.7631836,0.025390625,0.56762695,-0.034055203,-0.044697456,0.0042569004,0.013671875,0.44726563,4.8828125E-4,0.89404297
17/07/11 05:04:35:262,1029,-0.7631836,0.025390625,0.56762695,-0.034055203,-0.044697456,0.0042569004,0.013671875,0.44726563,4.8828125E-4,0.89404297
17/07/11 05:04:35:267,1034,-0.76220703,0.02734375,0.5720215,-0.032990977,-0.04576168,0.0053211255,0.014160156,0.44726563,9.765625E-4,0.89404297
17/07/11 05:04:35:272,1039,-0.76220703,0.02734375,0.5720215,-0.032990977,-0.04576168,0.0053211255,0.014160156,0.44726563,9.765625E-4,0.89404297
17/07/11 05:04:35:277,1044,-0.76220703,0.02734375,0.5720215,-0.032990977,-0.04576168,0.0053211255,0.014160156,0.44726563,9.765625E-4,0.89404297
17/07/11 05:04:35:283,1050,-0.76220703,0.02734375,0.5720215,-0.032990977,-0.04576168,0.0053211255,0.014160156,0.44726563,9.765625E-4,0.89404297
17/07/11 05:04:35:289,1056,-0.76220703,0.02734375,0.5720215,-0.032990977,-0.04576168,0.0053211255,0.014160156,0.44726563,9.765625E-4,0.89404297
17/07/11 05:04:35:295,1062,-0.7697754,0.028076172,0.57177734,-0.034055203,-0.044697456,0.0053211255,0.0146484375,0.44677734,9.765625E-4,0.89404297
17/07/11 05:04:35:300,1067,-0.7697754,0.028076172,0.57177734,-0.034055203,-0.044697456,0.0053211255,0.0146484375,0.44677734,9.765625E-4,0.89404297
17/07/11 05:04:35:305,1072,-0.7697754,0.028076172,0.57177734,-0.034055203,-0.044697456,0.0053211255,0.0146484375,0.44677734,9.765625E-4,0.89404297
17/07/11 05:04:35:310,1077,-0.7697754,0.028076172,0.57177734,-0.034055203,-0.044697456,0.0053211255,0.0146484375,0.44677734,9.765625E-4,0.89404297
17/07/11 05:04:35:315,1082,-0.7697754,0.028076172,0.57177734,-0.034055203,-0.044697456,0.0053211255,0.0146484375,0.44677734,9.765625E-4,0.89404297
17/07/11 05:04:35:320,1087,-0.76220703,0.02368164,0.57128906,-0.032990977,-0.044697456,0.0053211255,0.0146484375,0.44677734,9.765625E-4,0.89404297
17/07/11 05:04:35:325,1092,-0.7651367,0.026123047,0.5720215,-0.034055203,-0.044697456,0.0053211255,0.0146484375,0.44677734,9.765625E-4,0.89453125
17/07/11 05:04:35:330,1097,-0.7651367,0.026123047,0.5720215,-0.034055203,-0.044697456,0.0053211255,0.0146484375,0.44677734,9.765625E-4,0.89453125
17/07/11 05:04:35:335,1102,-0.7651367,0.026123047,0.5720215,-0.034055203,-0.044697456,0.0053211255,0.0146484375,0.44677734,9.765625E-4,0.89453125
17/07/11 05:04:35:340,1107,-0.7651367,0.026123047,0.5720215,-0.034055203,-0.044697456,0.0053211255,0.0146484375,0.44677734,9.765625E-4,0.89453125
17/07/11 05:04:35:345,1112,-0.7651367,0.026123047,0.5720215,-0.034055203,-0.044697456,0.0053211255,0.0146484375,0.44677734,9.765625E-4,0.89453125
17/07/11 05:04:35:350,1117,-0.76000977,0.023925781,0.57177734,-0.034055203,-0.044697456,0.0042569004,0.0146484375,0.44677734,9.765625E-4,0.89453125
17/07/11 05:04:35:356,1123,-0.76000977,0.023925781,0.57177734,-0.034055203,-0.044697456,0.0042569004,0.0146484375,0.44677734,9.765625E-4,0.89453125
17/07/11 05:04:35:361,1128,-0.76000977,0.023925781,0.57177734,-0.034055203,-0.044697456,0.0042569004,0.0146484375,0.44677734,9.765625E-4,0.89453125
17/07/11 05:04:35:366,1133,-0.76000977,0.023925781,0.57177734,-0.034055203,-0.044697456,0.0042569004,0.0146484375,0.44677734,9.765625E-4,0.89453125
17/07/11 05:04:35:371,1138,-0.76000977,0.023925781,0.57177734,-0.034055203,-0.044697456,0.0042569004,0.0146484375,0.44677734,9.765625E-4,0.89453125
17/07/11 05:04:35:376,1143,-0.76660156,0.024658203,0.57421875,-0.03192675,-0.044697456,0.0053211255,0.013671875,0.44726563,4.8828125E-4,0.89404297
17/07/11 05:04:35:381,1148,-0.76660156,0.024658203,0.57421875,-0.03192675,-0.044697456,0.0053211255,0.013671875,0.44726563,4.8828125E-4,0.89404297
17/07/11 05:04:35:386,1153,-0.76660156,0.024658203,0.57421875,-0.03192675,-0.044697456,0.0053211255,0.013671875,0.44726563,4.8828125E-4,0.89404297
17/07/11 05:04:35:391,1158,-0.7583008,0.024169922,0.57177734,-0.034055203,-0.044697456,0.0042569004,0.013671875,0.44726563,4.8828125E-4,0.89404297
17/07/11 05:04:35:397,1164,-0.7644043,0.026123047,0.5756836,-0.032990977,-0.04363323,0.0053211255,0.0146484375,0.44726563,9.765625E-4,0.89404297
17/07/11 05:04:35:402,1169,-0.7644043,0.026123047,0.5756836,-0.032990977,-0.04363323,0.0053211255,0.0146484375,0.44726563,9.765625E-4,0.89404297
17/07/11 05:04:35:407,1174,-0.7624512,0.025634766,0.57421875,-0.03192675,-0.044697456,0.0053211255,0.0146484375,0.44677734,9.765625E-4,0.89453125
17/07/11 05:04:35:412,1179,-0.7624512,0.025634766,0.57421875,-0.03192675,-0.044697456,0.0053211255,0.0146484375,0.44677734,9.765625E-4,0.89453125
17/07/11 05:04:35:417,1184,-0.7626953,0.026611328,0.5751953,-0.032990977,-0.044697456,0.0053211255,0.014160156,0.44628906,9.765625E-4,0.89453125
17/07/11 05:04:35:423,1190,-0.7626953,0.026611328,0.5751953,-0.032990977,-0.044697456,0.0053211255,0.014160156,0.44628906,9.765625E-4,0.89453125
17/07/11 05:04:35:428,1195,-0.763916,0.025878906,0.5708008,-0.034055203,-0.044697456,0.0074495757,0.0146484375,0.44580078,9.765625E-4,0.89501953
17/07/11 05:04:35:434,1201,-0.76586914,0.025146484,0.5686035,-0.032990977,-0.044697456,0.0053211255,0.0146484375,0.44628906,9.765625E-4,0.89453125
17/07/11 05:04:35:445,1212,-0.75878906,0.02709961,0.56689453,-0.032990977,-0.044697456,0.0042569004,0.0146484375,0.44677734,9.765625E-4,0.89453125
17/07/11 05:04:35:450,1217,-0.75878906,0.02709961,0.56689453,-0.032990977,-0.044697456,0.0042569004,0.0146484375,0.44677734,9.765625E-4,0.89453125
17/07/11 05:04:35:455,1222,-0.75878906,0.02709961,0.56689453,-0.032990977,-0.044697456,0.0042569004,0.0146484375,0.44677734,9.765625E-4,0.89453125
17/07/11 05:04:35:460,1227,-0.75878906,0.02709961,0.56689453,-0.032990977,-0.044697456,0.0042569004,0.0146484375,0.44677734,9.765625E-4,0.89453125
17/07/11 05:04:35:465,1232,-0.75878906,0.02709961,0.56689453,-0.032990977,-0.044697456,0.0042569004,0.0146484375,0.44677734,9.765625E-4,0.89453125
17/07/11 05:04:35:470,1237,-0.75878906,0.02709961,0.56689453,-0.032990977,-0.044697456,0.0042569004,0.0146484375,0.44677734,9.765625E-4,0.89453125
17/07/11 05:04:35:475,1242,-0.75878906,0.02709961,0.56689453,-0.032990977,-0.044697456,0.0042569004,0.0146484375,0.44677734,9.765625E-4,0.89453125
17/07/11 05:04:35:480,1247,-0.76293945,0.02709961,0.5722656,-0.03192675,-0.044697456,0.0053211255,0.013671875,0.4477539,9.765625E-4,0.8935547
17/07/11 05:04:35:485,1252,-0.76293945,0.02709961,0.5722656,-0.03192675,-0.044697456,0.0053211255,0.013671875,0.4477539,9.765625E-4,0.8935547
17/07/11 05:04:35:490,1257,-0.76171875,0.024902344,0.57250977,-0.032990977,-0.044697456,0.0053211255,0.014160156,0.44726563,9.765625E-4,0.89404297
17/07/11 05:04:35:495,1262,-0.7570801,0.029052734,0.5722656,-0.03192675,-0.044697456,0.0053211255,0.014160156,0.44677734,9.765625E-4,0.89404297
17/07/11 05:04:35:501,1268,-0.7570801,0.029052734,0.5722656,-0.03192675,-0.044697456,0.0053211255,0.014160156,0.44677734,9.765625E-4,0.89404297
17/07/11 05:04:35:506,1273,-0.7570801,0.029052734,0.5722656,-0.03192675,-0.044697456,0.0053211255,0.014160156,0.44677734,9.765625E-4,0.89404297
17/07/11 05:04:35:511,1278,-0.7570801,0.029052734,0.5722656,-0.03192675,-0.044697456,0.0053211255,0.014160156,0.44677734,9.765625E-4,0.89404297
17/07/11 05:04:35:517,1284,-0.7570801,0.029052734,0.5722656,-0.03192675,-0.044697456,0.0053211255,0.014160156,0.44677734,9.765625E-4,0.89404297
17/07/11 05:04:35:522,1289,-0.7570801,0.029052734,0.5722656,-0.03192675,-0.044697456,0.0053211255,0.014160156,0.44677734,9.765625E-4,0.89404297
17/07/11 05:04:35:527,1294,-0.765625,0.025634766,0.57470703,-0.03192675,-0.04576168,0.0053211255,0.0146484375,0.44628906,9.765625E-4,0.89453125
17/07/11 05:04:35:533,1300,-0.7663574,0.024414063,0.5776367,-0.032990977,-0.044697456,0.0053211255,0.014160156,0.44726563,9.765625E-4,0.89404297
17/07/11 05:04:35:538,1305,-0.7602539,0.024414063,0.5695801,-0.03192675,-0.044697456,0.0042569004,0.014160156,0.44677734,9.765625E-4,0.89453125
17/07/11 05:04:35:543,1310,-0.76538086,0.024902344,0.57421875,-0.032990977,-0.04576168,0.0053211255,0.013671875,0.44726563,4.8828125E-4,0.89404297
17/07/11 05:04:35:548,1315,-0.76538086,0.024902344,0.57421875,-0.032990977,-0.04576168,0.0053211255,0.013671875,0.44726563,4.8828125E-4,0.89404297
17/07/11 05:04:35:553,1320,-0.76538086,0.024902344,0.57421875,-0.032990977,-0.04576168,0.0053211255,0.013671875,0.44726563,4.8828125E-4,0.89404297
17/07/11 05:04:35:558,1325,-0.76538086,0.024902344,0.57421875,-0.032990977,-0.04576168,0.0053211255,0.013671875,0.44726563,4.8828125E-4,0.89404297
17/07/11 05:04:35:564,1331,-0.76538086,0.024902344,0.57421875,-0.032990977,-0.04576168,0.0053211255,0.013671875,0.44726563,4.8828125E-4,0.89404297
17/07/11 05:04:35:569,1336,-0.76538086,0.024902344,0.57421875,-0.032990977,-0.04576168,0.0053211255,0.013671875,0.44726563,4.8828125E-4,0.89404297
17/07/11 05:04:35:574,1341,-0.76538086,0.024902344,0.57421875,-0.032990977,-0.04576168,0.0053211255,0.013671875,0.44726563,4.8828125E-4,0.89404297
17/07/11 05:04:35:580,1347,-0.7644043,0.02758789,0.5695801,-0.034055203,-0.044697456,0.0042569004,0.013671875,0.44677734,9.765625E-4,0.89453125
17/07/11 05:04:35:585,1352,-0.7609863,0.024658203,0.5722656,-0.03192675,-0.044697456,0.0053211255,0.013671875,0.44726563,4.8828125E-4,0.89404297
17/07/11 05:04:35:590,1357,-0.76220703,0.024169922,0.5732422,-0.034055203,-0.04363323,0.0063853506,0.013671875,0.44677734,4.8828125E-4,0.89453125
17/07/11 05:04:35:595,1362,-0.7619629,0.026367188,0.5686035,-0.032990977,-0.044697456,0.0053211255,0.013183594,0.44580078,4.8828125E-4,0.89453125
17/07/11 05:04:35:600,1367,-0.7619629,0.026367188,0.5686035,-0.032990977,-0.044697456,0.0053211255,0.013183594,0.44580078,4.8828125E-4,0.89453125
17/07/11 05:04:35:605,1372,-0.7687988,0.026123047,0.5727539,-0.03192675,-0.04576168,0.0053211255,0.013671875,0.44628906,4.8828125E-4,0.89453125
17/07/11 05:04:35:611,1378,-0.7687988,0.026123047,0.5727539,-0.03192675,-0.04576168,0.0053211255,0.013671875,0.44628906,4.8828125E-4,0.89453125
17/07/11 05:04:35:616,1383,-0.7626953,0.026123047,0.5715332,-0.03192675,-0.04363323,0.0042569004,0.014160156,0.44726563,9.765625E-4,0.89404297
17/07/11 05:04:35:621,1388,-0.7626953,0.026123047,0.5715332,-0.03192675,-0.04363323,0.0042569004,0.014160156,0.44726563,9.765625E-4,0.89404297
17/07/11 05:04:35:626,1393,-0.7626953,0.025634766,0.5732422,-0.032990977,-0.04363323,0.0053211255,0.0146484375,0.44677734,9.765625E-4,0.89404297
17/07/11 05:04:35:632,1399,-0.7626953,0.025634766,0.5732422,-0.032990977,-0.04363323,0.0053211255,0.0146484375,0.44677734,9.765625E-4,0.89404297
17/07/11 05:04:35:637,1404,-0.75756836,0.026123047,0.5761719,-0.032990977,-0.04576168,0.0053211255,0.014160156,0.44628906,9.765625E-4,0.89453125
17/07/11 05:04:35:642,1409,-0.75756836,0.026123047,0.5761719,-0.032990977,-0.04576168,0.0053211255,0.014160156,0.44628906,9.765625E-4,0.89453125
17/07/11 05:04:35:647,1414,-0.75,0.025390625,0.57006836,-0.034055203,-0.044697456,0.0053211255,0.014160156,0.44580078,9.765625E-4,0.89453125
17/07/11 05:04:35:652,1419,-0.75,0.025390625,0.57006836,-0.034055203,-0.044697456,0.0053211255,0.014160156,0.44580078,9.765625E-4,0.89453125
17/07/11 05:04:35:657,1424,-0.7590332,0.022705078,0.56884766,-0.032990977,-0.04363323,0.0074495757,0.014160156,0.4453125,9.765625E-4,0.89501953
17/07/11 05:04:35:662,1429,-0.7590332,0.022705078,0.56884766,-0.032990977,-0.04363323,0.0074495757,0.014160156,0.4453125,9.765625E-4,0.89501953
17/07/11 05:04:35:667,1434,-0.7668457,0.029052734,0.5727539,-0.03192675,-0.044697456,0.0063853506,0.013671875,0.44580078,9.765625E-4,0.89501953
17/07/11 05:04:35:672,1439,-0.7668457,0.029052734,0.5727539,-0.03192675,-0.044697456,0.0063853506,0.013671875,0.44580078,9.765625E-4,0.89501953
17/07/11 05:04:35:677,1444,-0.7619629,0.029052734,0.5793457,-0.032990977,-0.044697456,0.0053211255,0.014160156,0.44628906,9.765625E-4,0.89453125
17/07/11 05:04:35:683,1450,-0.7619629,0.029052734,0.5793457,-0.032990977,-0.044697456,0.0053211255,0.014160156,0.44628906,9.765625E-4,0.89453125
17/07/11 05:04:35:688,1455,-0.7619629,0.029052734,0.5793457,-0.032990977,-0.044697456,0.0053211255,0.014160156,0.44628906,9.765625E-4,0.89453125
17/07/11 05:04:35:694,1461,-0.7619629,0.029052734,0.5793457,-0.032990977,-0.044697456,0.0053211255,0.014160156,0.44628906,9.765625E-4,0.89453125
17/07/11 05:04:35:699,1466,-0.7619629,0.029052734,0.5793457,-0.032990977,-0.044697456,0.0053211255,0.014160156,0.44628906,9.765625E-4,0.89453125
17/07/11 05:04:35:704,1471,-0.7619629,0.029052734,0.5793457,-0.032990977,-0.044697456,0.0053211255,0.014160156,0.44628906,9.765625E-4,0.89453125
17/07/11 05:04:35:710,1477,-0.7561035,0.02758789,0.5695801,-0.032990977,-0.04363323,0.0053211255,0.0146484375,0.44580078,9.765625E-4,0.89501953
17/07/11 05:04:35:715,1482,-0.76660156,0.02758789,0.5734863,-0.032990977,-0.044697456,0.0042569004,0.015136719,0.44677734,0.0014648438,0.89404297
17/07/11 05:04:35:720,1487,-0.76660156,0.02758789,0.5734863,-0.032990977,-0.044697456,0.0042569004,0.015136719,0.44677734,0.0014648438,0.89404297
17/07/11 05:04:35:725,1492,-0.76708984,0.029785156,0.5727539,-0.034055203,-0.04576168,0.0042569004,0.015136719,0.44726563,0.0014648438,0.89404297
17/07/11 05:04:35:730,1497,-0.76708984,0.029785156,0.5727539,-0.034055203,-0.04576168,0.0042569004,0.015136719,0.44726563,0.0014648438,0.89404297
17/07/11 05:04:35:735,1502,-0.76708984,0.029785156,0.5727539,-0.034055203,-0.04576168,0.0042569004,0.015136719,0.44726563,0.0014648438,0.89404297
17/07/11 05:04:35:740,1507,-0.76708984,0.029785156,0.5727539,-0.034055203,-0.04576168,0.0042569004,0.015136719,0.44726563,0.0014648438,0.89404297
17/07/11 05:04:35:745,1512,-0.76708984,0.029785156,0.5727539,-0.034055203,-0.04576168,0.0042569004,0.015136719,0.44726563,0.0014648438,0.89404297
17/07/11 05:04:35:750,1517,-0.76708984,0.029785156,0.5727539,-0.034055203,-0.04576168,0.0042569004,0.015136719,0.44726563,0.0014648438,0.89404297
17/07/11 05:04:35:756,1523,-0.76708984,0.029785156,0.5727539,-0.034055203,-0.04576168,0.0042569004,0.015136719,0.44726563,0.0014648438,0.89404297
17/07/11 05:04:35:761,1528,-0.76708984,0.029785156,0.5727539,-0.034055203,-0.04576168,0.0042569004,0.015136719,0.44726563,0.0014648438,0.89404297
17/07/11 05:04:35:766,1533,-0.76293945,0.026611328,0.56762695,-0.034055203,-0.04576168,0.0042569004,0.015625,0.4477539,0.0014648438,0.89404297
17/07/11 05:04:35:771,1538,-0.76416016,0.026855469,0.5769043,-0.032990977,-0.04576168,0.0042569004,0.015136719,0.4482422,0.0014648438,0.8935547
17/07/11 05:04:35:777,1544,-0.76220703,0.024169922,0.5722656,-0.032990977,-0.044697456,0.0042569004,0.015136719,0.44726563,0.0014648438,0.89404297
17/07/11 05:04:35:782,1549,-0.76220703,0.024169922,0.5722656,-0.032990977,-0.044697456,0.0042569004,0.015136719,0.44726563,0.0014648438,0.89404297
17/07/11 05:04:35:787,1554,-0.7626953,0.025634766,0.5698242,-0.034055203,-0.044697456,0.0053211255,0.0146484375,0.44726563,9.765625E-4,0.89404297
17/07/11 05:04:35:792,1559,-0.76220703,0.028564453,0.5722656,-0.032990977,-0.044697456,0.0042569004,0.0146484375,0.44726563,9.765625E-4,0.89404297
17/07/11 05:04:35:798,1565,-0.76220703,0.028564453,0.5722656,-0.032990977,-0.044697456,0.0042569004,0.014160156,0.4477539,9.765625E-4,0.89404297
17/07/11 05:04:35:804,1571,-0.75878906,0.026611328,0.5756836,-0.032990977,-0.04363323,0.0053211255,0.014160156,0.4477539,9.765625E-4,0.89404297
17/07/11 05:04:35:809,1576,-0.75878906,0.026611328,0.5756836,-0.032990977,-0.04363323,0.0053211255,0.0146484375,0.44726563,9.765625E-4,0.89404297
17/07/11 05:04:35:814,1581,-0.7631836,0.028564453,0.5734863,-0.034055203,-0.044697456,0.0042569004,0.0146484375,0.44726563,9.765625E-4,0.89404297
17/07/11 05:04:35:819,1586,-0.7631836,0.028564453,0.5734863,-0.034055203,-0.044697456,0.0042569004,0.0146484375,0.44677734,9.765625E-4,0.89453125
17/07/11 05:04:35:824,1591,-0.7668457,0.0234375,0.5710449,-0.034055203,-0.04576168,0.0042569004,0.015625,0.44628906,0.0014648438,0.89453125
17/07/11 05:04:35:829,1596,-0.7668457,0.0234375,0.5710449,-0.034055203,-0.04576168,0.0042569004,0.015625,0.44628906,0.0014648438,0.89453125
17/07/11 05:04:35:834,1601,-0.7619629,0.026855469,0.5690918,-0.032990977,-0.046825904,0.0042569004,0.015136719,0.44677734,0.0014648438,0.89404297
17/07/11 05:04:35:839,1606,-0.7619629,0.026855469,0.5690918,-0.032990977,-0.046825904,0.0042569004,0.015136719,0.44677734,0.0014648438,0.89404297
17/07/11 05:04:35:844,1611,-0.763916,0.025634766,0.5695801,-0.032990977,-0.044697456,0.0053211255,0.0146484375,0.44726563,0.0014648438,0.89404297
17/07/11 05:04:35:850,1617,-0.763916,0.025634766,0.5695801,-0.032990977,-0.044697456,0.0053211255,0.0146484375,0.44726563,0.0014648438,0.89404297
17/07/11 05:04:35:855,1622,-0.75878906,0.026123047,0.5671387,-0.03192675,-0.044697456,0.0053211255,0.0146484375,0.4477539,9.765625E-4,0.8935547
17/07/11 05:04:35:860,1627,-0.75878906,0.026123047,0.5671387,-0.03192675,-0.044697456,0.0053211255,0.0146484375,0.4477539,9.765625E-4,0.8935547
17/07/11 05:04:35:865,1632,-0.7636719,0.02368164,0.57250977,-0.030862529,-0.04576168,0.0063853506,0.0146484375,0.44726563,9.765625E-4,0.89404297
17/07/11 05:04:35:870,1637,-0.7636719,0.02368164,0.57250977,-0.030862529,-0.04576168,0.0063853506,0.0146484375,0.44726563,9.765625E-4,0.89404297
17/07/11 05:04:35:875,1642,-0.7636719,0.02368164,0.57250977,-0.030862529,-0.04576168,0.0063853506,0.0146484375,0.44726563,9.765625E-4,0.89404297
17/07/11 05:04:35:881,1648,-0.7636719,0.02368164,0.57250977,-0.030862529,-0.04576168,0.0063853506,0.0146484375,0.44726563,9.765625E-4,0.89404297
17/07/11 05:04:35:886,1653,-0.7636719,0.02368164,0.57250977,-0.030862529,-0.04576168,0.0063853506,0.0146484375,0.44726563,9.765625E-4,0.89404297
17/07/11 05:04:35:891,1658,-0.7636719,0.02368164,0.57250977,-0.030862529,-0.04576168,0.0063853506,0.0146484375,0.44726563,9.765625E-4,0.89404297
17/07/11 05:04:35:896,1663,-0.7631836,0.022705078,0.56933594,-0.032990977,-0.04363323,0.0063853506,0.014160156,0.44726563,9.765625E-4,0.89404297
17/07/11 05:04:35:901,1668,-0.75512695,0.02758789,0.57299805,-0.03192675,-0.04576168,0.0042569004,0.013183594,0.44677734,4.8828125E-4,0.89404297
17/07/11 05:04:35:906,1673,-0.7602539,0.024169922,0.5734863,-0.03511943,-0.04576168,0.0063853506,0.013671875,0.44628906,4.8828125E-4,0.89453125
17/07/11 05:04:35:911,1678,-0.7602539,0.024169922,0.5734863,-0.03511943,-0.04576168,0.0063853506,0.013671875,0.44628906,4.8828125E-4,0.89453125
17/07/11 05:04:35:917,1684,-0.765625,0.025634766,0.5720215,-0.03192675,-0.04363323,0.0063853506,0.013671875,0.44580078,4.8828125E-4,0.89453125
17/07/11 05:04:35:922,1689,-0.765625,0.025634766,0.5720215,-0.03192675,-0.04363323,0.0063853506,0.013671875,0.44580078,4.8828125E-4,0.89453125
17/07/11 05:04:35:927,1694,-0.765625,0.025634766,0.5720215,-0.03192675,-0.04363323,0.0063853506,0.013671875,0.44580078,4.8828125E-4,0.89453125
17/07/11 05:04:35:933,1700,-0.765625,0.025634766,0.5720215,-0.03192675,-0.04363323,0.0063853506,0.013671875,0.44580078,4.8828125E-4,0.89453125
17/07/11 05:04:35:938,1705,-0.765625,0.025634766,0.5720215,-0.03192675,-0.04363323,0.0063853506,0.013671875,0.44580078,4.8828125E-4,0.89453125
17/07/11 05:04:35:943,1710,-0.765625,0.025634766,0.5720215,-0.03192675,-0.04363323,0.0063853506,0.013671875,0.44580078,4.8828125E-4,0.89453125
17/07/11 05:04:35:948,1715,-0.7602539,0.024169922,0.5756836,-0.03192675,-0.04363323,0.0031926753,0.013671875,0.44628906,4.8828125E-4,0.89453125
17/07/11 05:04:35:953,1720,-0.76293945,0.025634766,0.5715332,-0.032990977,-0.044697456,0.0042569004,0.014160156,0.44628906,9.765625E-4,0.89453125
17/07/11 05:04:35:959,1726,-0.76171875,0.025634766,0.5756836,-0.03192675,-0.044697456,0.0042569004,0.014160156,0.44677734,9.765625E-4,0.89453125
17/07/11 05:04:35:964,1731,-0.76464844,0.02734375,0.57299805,-0.03192675,-0.044697456,0.0053211255,0.014160156,0.44628906,9.765625E-4,0.89453125
17/07/11 05:04:35:969,1736,-0.76464844,0.02734375,0.57299805,-0.03192675,-0.044697456,0.0053211255,0.014160156,0.44628906,9.765625E-4,0.89453125
17/07/11 05:04:35:975,1742,-0.7626953,0.02709961,0.57910156,-0.032990977,-0.044697456,0.0042569004,0.0146484375,0.44677734,9.765625E-4,0.89453125
17/07/11 05:04:35:980,1747,-0.7626953,0.02709961,0.57910156,-0.032990977,-0.044697456,0.0042569004,0.0146484375,0.44677734,9.765625E-4,0.89453125
17/07/11 05:04:35:986,1753,-0.7590332,0.025878906,0.5698242,-0.032990977,-0.04363323,0.0042569004,0.0146484375,0.44580078,9.765625E-4,0.89453125
17/07/11 05:04:35:991,1758,-0.7590332,0.025878906,0.5698242,-0.032990977,-0.04363323,0.0042569004,0.0146484375,0.44580078,9.765625E-4,0.89453125
17/07/11 05:04:35:997,1764,-0.7619629,0.025878906,0.57006836,-0.03192675,-0.044697456,0.0053211255,0.014160156,0.44677734,9.765625E-4,0.89453125
17/07/11 05:04:36:002,1769,-0.7619629,0.025878906,0.57006836,-0.03192675,-0.044697456,0.0053211255,0.014160156,0.44677734,9.765625E-4,0.89453125
17/07/11 05:04:36:007,1774,-0.76782227,0.027832031,0.5727539,-0.03192675,-0.044697456,0.0063853506,0.014160156,0.44726563,9.765625E-4,0.89404297
17/07/11 05:04:36:012,1779,-0.76782227,0.027832031,0.5727539,-0.03192675,-0.044697456,0.0063853506,0.014160156,0.44726563,9.765625E-4,0.89404297
17/07/11 05:04:36:018,1785,-0.76342773,0.026855469,0.5690918,-0.034055203,-0.04363323,0.0053211255,0.0146484375,0.4477539,9.765625E-4,0.89404297
17/07/11 05:04:36:023,1790,-0.76342773,0.026855469,0.5690918,-0.034055203,-0.04363323,0.0053211255,0.0146484375,0.4477539,9.765625E-4,0.89404297
17/07/11 05:04:36:028,1795,-0.7597656,0.02734375,0.5732422,-0.032990977,-0.044697456,0.0042569004,0.0146484375,0.4482422,9.765625E-4,0.8935547
17/07/11 05:04:36:033,1800,-0.7597656,0.02734375,0.5732422,-0.032990977,-0.044697456,0.0042569004,0.0146484375,0.4482422,9.765625E-4,0.8935547
17/07/11 05:04:36:038,1805,-0.75927734,0.024658203,0.5710449,-0.032990977,-0.04576168,0.0063853506,0.0146484375,0.4477539,0.0014648438,0.89404297
17/07/11 05:04:36:043,1810,-0.75927734,0.024658203,0.5710449,-0.032990977,-0.04576168,0.0063853506,0.0146484375,0.4477539,0.0014648438,0.89404297
17/07/11 05:04:36:048,1815,-0.76538086,0.022705078,0.57006836,-0.032990977,-0.04576168,0.0053211255,0.0146484375,0.44726563,9.765625E-4,0.89404297
17/07/11 05:04:36:053,1820,-0.76538086,0.022705078,0.57006836,-0.032990977,-0.04576168,0.0053211255,0.0146484375,0.44726563,9.765625E-4,0.89404297
17/07/11 05:04:36:058,1825,-0.7614746,0.025146484,0.56933594,-0.03192675,-0.046825904,0.0042569004,0.014160156,0.44726563,9.765625E-4,0.89404297
17/07/11 05:04:36:063,1830,-0.7614746,0.025146484,0.56933594,-0.03192675,-0.046825904,0.0042569004,0.014160156,0.44726563,9.765625E-4,0.89404297
17/07/11 05:04:36:068,1835,-0.76123047,0.024902344,0.5722656,-0.03192675,-0.04576168,0.0053211255,0.0146484375,0.44726563,9.765625E-4,0.89404297
17/07/11 05:04:36:073,1840,-0.76123047,0.024902344,0.5722656,-0.03192675,-0.04576168,0.0053211255,0.0146484375,0.44726563,9.765625E-4,0.89404297
17/07/11 05:04:36:078,1845,-0.7607422,0.025146484,0.57250977,-0.034055203,-0.04363323,0.0063853506,0.014160156,0.44677734,9.765625E-4,0.89404297
17/07/11 05:04:36:083,1850,-0.7607422,0.025146484,0.57250977,-0.034055203,-0.04363323,0.0063853506,0.014160156,0.44677734,9.765625E-4,0.89404297
17/07/11 05:04:36:089,1856,-0.7651367,0.025634766,0.576416,-0.032990977,-0.044697456,0.0053211255,0.014160156,0.44628906,9.765625E-4,0.89453125
17/07/11 05:04:36:095,1862,-0.7651367,0.025634766,0.576416,-0.032990977,-0.044697456,0.0053211255,0.014160156,0.44628906,9.765625E-4,0.89453125
17/07/11 05:04:36:102,1869,-0.7651367,0.025634766,0.576416,-0.032990977,-0.044697456,0.0053211255,0.014160156,0.44628906,9.765625E-4,0.89453125
17/07/11 05:04:36:111,1878,-0.7651367,0.025634766,0.576416,-0.032990977,-0.044697456,0.0053211255,0.014160156,0.44628906,9.765625E-4,0.89453125
17/07/11 05:04:36:116,1883,-0.75878906,0.022216797,0.5683594,-0.032990977,-0.04576168,0.0042569004,0.014160156,0.44580078,9.765625E-4,0.89453125
17/07/11 05:04:36:122,1889,-0.7636719,0.024902344,0.5732422,-0.032990977,-0.04363323,0.0053211255,0.013671875,0.44677734,4.8828125E-4,0.89453125
17/07/11 05:04:36:129,1896,-0.76000977,0.026123047,0.57250977,-0.03192675,-0.04363323,0.0053211255,0.014160156,0.44580078,9.765625E-4,0.89453125
17/07/11 05:04:36:137,1904,-0.7614746,0.024658203,0.57177734,-0.032990977,-0.044697456,0.0053211255,0.0146484375,0.44580078,9.765625E-4,0.89453125
17/07/11 05:04:36:142,1909,-0.7614746,0.024658203,0.57177734,-0.032990977,-0.044697456,0.0053211255,0.0146484375,0.44580078,9.765625E-4,0.89453125
17/07/11 05:04:36:147,1914,-0.7614746,0.024658203,0.57177734,-0.032990977,-0.044697456,0.0053211255,0.0146484375,0.44580078,9.765625E-4,0.89453125
17/07/11 05:04:36:152,1919,-0.7614746,0.024658203,0.57177734,-0.032990977,-0.044697456,0.0053211255,0.0146484375,0.44580078,9.765625E-4,0.89453125
17/07/11 05:04:36:158,1925,-0.7614746,0.024658203,0.57177734,-0.032990977,-0.044697456,0.0053211255,0.0146484375,0.44580078,9.765625E-4,0.89453125
17/07/11 05:04:36:164,1931,-0.7614746,0.024658203,0.57177734,-0.032990977,-0.044697456,0.0053211255,0.0146484375,0.44580078,9.765625E-4,0.89453125
17/07/11 05:04:36:169,1936,-0.7590332,0.023925781,0.57299805,-0.032990977,-0.044697456,0.0053211255,0.014160156,0.44628906,9.765625E-4,0.89453125
17/07/11 05:04:36:174,1941,-0.7631836,0.024169922,0.57421875,-0.03511943,-0.044697456,0.0063853506,0.014160156,0.44580078,9.765625E-4,0.89453125
17/07/11 05:04:36:179,1946,-0.7631836,0.024169922,0.57421875,-0.03511943,-0.044697456,0.0063853506,0.014160156,0.44580078,9.765625E-4,0.89453125
17/07/11 05:04:36:184,1951,-0.7663574,0.024414063,0.5722656,-0.034055203,-0.044697456,0.0063853506,0.014160156,0.44580078,9.765625E-4,0.89453125
17/07/11 05:04:36:189,1956,-0.7663574,0.024414063,0.5722656,-0.034055203,-0.044697456,0.0063853506,0.013671875,0.44628906,4.8828125E-4,0.89453125
17/07/11 05:04:36:194,1961,-0.76342773,0.020751953,0.56640625,-0.032990977,-0.04576168,0.0042569004,0.013671875,0.44677734,4.8828125E-4,0.89453125
17/07/11 05:04:36:199,1966,-0.76342773,0.020751953,0.56640625,-0.032990977,-0.04576168,0.0042569004,0.013671875,0.44677734,4.8828125E-4,0.89453125
17/07/11 05:04:36:204,1971,-0.7944336,0.032470703,0.57250977,-0.032990977,-0.04363323,0.008513801,0.013671875,0.44677734,4.8828125E-4,0.89453125
17/07/11 05:04:36:209,1976,-0.7944336,0.032470703,0.57250977,-0.032990977,-0.04363323,0.008513801,0.013183594,0.44726563,4.8828125E-4,0.89404297
17/07/11 05:04:36:216,1983,-0.69433594,-0.013183594,0.5683594,-0.03511943,-0.04363323,-0.0042569004,0.013671875,0.44873047,4.8828125E-4,0.8935547
17/07/11 05:04:36:221,1988,-0.69433594,-0.013183594,0.5683594,-0.03511943,-0.04363323,-0.0042569004,0.013671875,0.44873047,4.8828125E-4,0.8935547
17/07/11 05:04:36:226,1993,-0.8405762,-0.0068359375,0.5698242,-0.030862529,-0.03192675,0.029798303,0.009765625,0.44384766,-9.765625E-4,0.8959961
17/07/11 05:04:36:231,1998,-0.8405762,-0.0068359375,0.5698242,-0.030862529,-0.03192675,0.029798303,0.009765625,0.44384766,-9.765625E-4,0.8959961
17/07/11 05:04:36:236,2003,-0.7397461,0.08251953,0.5202637,-0.022348728,-0.051082805,-0.012770701,0.0073242188,0.44921875,-0.001953125,0.8930664
17/07/11 05:04:36:242,2009,-0.7397461,0.08251953,0.5202637,-0.022348728,-0.051082805,-0.012770701,0.0073242188,0.44921875,-0.001953125,0.8930664
17/07/11 05:04:36:248,2015,-0.8474121,0.043945313,0.59277344,-0.03511943,-0.053211257,0.010642251,0.014160156,0.45117188,9.765625E-4,0.89208984
17/07/11 05:04:36:253,2020,-0.86987305,0.13061523,0.50268555,-0.024477176,-0.030862529,0.017027602,0.017578125,0.4560547,0.0024414063,0.88964844
17/07/11 05:04:36:258,2025,-0.86987305,0.13061523,0.50268555,-0.024477176,-0.030862529,0.017027602,0.017578125,0.4560547,0.0024414063,0.88964844
17/07/11 05:04:36:263,2030,-0.61450195,-0.0793457,0.6374512,-0.05427548,-0.046825904,-0.022348728,0.021972656,0.46044922,0.0048828125,0.88720703
17/07/11 05:04:36:268,2035,-0.61450195,-0.0793457,0.6374512,-0.05427548,-0.046825904,-0.022348728,0.021972656,0.46044922,0.0048828125,0.88720703
17/07/11 05:04:36:273,2040,-0.7841797,-0.046875,0.5541992,-0.03192675,-0.036183655,0.025541402,0.015136719,0.45117188,0.0014648438,0.89208984
17/07/11 05:04:36:278,2045,-0.7841797,-0.046875,0.5541992,-0.03192675,-0.036183655,0.025541402,0.015136719,0.45117188,0.0014648438,0.89208984
17/07/11 05:04:36:283,2050,-0.7841797,-0.046875,0.5541992,-0.03192675,-0.036183655,0.025541402,0.015136719,0.45117188,0.0014648438,0.89208984
17/07/11 05:04:36:289,2056,-0.7841797,-0.046875,0.5541992,-0.03192675,-0.036183655,0.025541402,0.015136719,0.45117188,0.0014648438,0.89208984
17/07/11 05:04:36:294,2061,-0.7841797,-0.046875,0.5541992,-0.03192675,-0.036183655,0.025541402,0.015136719,0.45117188,0.0014648438,0.89208984
17/07/11 05:04:36:300,2067,-0.7841797,-0.046875,0.5541992,-0.03192675,-0.036183655,0.025541402,0.015136719,0.45117188,0.0014648438,0.89208984
17/07/11 05:04:36:305,2072,-0.7841797,-0.046875,0.5541992,-0.03192675,-0.036183655,0.025541402,0.015136719,0.45117188,0.0014648438,0.89208984
17/07/11 05:04:36:310,2077,-0.8305664,0.03125,0.58325195,-0.025541402,-0.046825904,0.0042569004,0.008300781,0.45263672,-0.0014648438,0.8911133
17/07/11 05:04:36:316,2083,-0.7375488,0.04272461,0.61206055,-0.03937633,-0.044697456,-0.0021284502,0.0126953125,0.45361328,0.0,0.8911133
17/07/11 05:04:36:322,2089,-0.7375488,0.04272461,0.61206055,-0.03937633,-0.044697456,-0.0021284502,0.0126953125,0.45361328,0.0,0.8911133
17/07/11 05:04:36:327,2094,-0.7573242,-0.042236328,0.5888672,-0.03937633,-0.04363323,0.009578026,0.0146484375,0.4482422,9.765625E-4,0.8935547
17/07/11 05:04:36:332,2099,-0.7573242,-0.042236328,0.5888672,-0.03937633,-0.04363323,0.009578026,0.0146484375,0.4482422,9.765625E-4,0.8935547
17/07/11 05:04:36:337,2104,-0.7573242,-0.042236328,0.5888672,-0.03937633,-0.04363323,0.009578026,0.0146484375,0.4482422,9.765625E-4,0.8935547
17/07/11 05:04:36:342,2109,-0.7573242,-0.042236328,0.5888672,-0.03937633,-0.04363323,0.009578026,0.0146484375,0.4482422,9.765625E-4,0.8935547
17/07/11 05:04:36:347,2114,-0.7573242,-0.042236328,0.5888672,-0.03937633,-0.04363323,0.009578026,0.0146484375,0.4482422,9.765625E-4,0.8935547
17/07/11 05:04:36:352,2119,-0.7573242,-0.042236328,0.5888672,-0.03937633,-0.04363323,0.009578026,0.0146484375,0.4482422,9.765625E-4,0.8935547
17/07/11 05:04:36:357,2124,-0.79125977,0.036132813,0.54907227,-0.027669853,-0.036183655,0.0053211255,0.011230469,0.44726563,0.0,0.89404297
17/07/11 05:04:36:363,2130,-0.83496094,0.06274414,0.52124023,-0.023412952,-0.042569004,0.021284502,0.009277344,0.4482422,-9.765625E-4,0.8935547
17/07/11 05:04:36:367,2134,-0.7302246,0.080566406,0.6032715,-0.034055203,-0.044697456,-0.0042569004,0.012207031,0.45361328,0.0,0.8911133
17/07/11 05:04:36:374,2141,-0.7302246,0.080566406,0.6032715,-0.034055203,-0.044697456,-0.0042569004,0.012207031,0.45361328,0.0,0.8911133
17/07/11 05:04:36:380,2147,-0.75268555,0.0026855469,0.58935547,-0.037247878,-0.04789013,0.009578026,0.016601563,0.44873047,0.0024414063,0.8930664
17/07/11 05:04:36:386,2153,-0.76831055,0.040527344,0.55737305,-0.028734077,-0.03511943,0.0042569004,0.014160156,0.44677734,9.765625E-4,0.89404297
17/07/11 05:04:36:395,2162,-0.7421875,-0.028808594,0.5769043,-0.03937633,-0.04789013,-0.0021284502,0.016601563,0.44921875,0.0024414063,0.8930664
17/07/11 05:04:36:401,2168,-0.7421875,-0.028808594,0.5769043,-0.03937633,-0.04789013,-0.0021284502,0.016601563,0.44921875,0.0024414063,0.8930664
17/07/11 05:04:36:406,2173,-0.7421875,-0.028808594,0.5769043,-0.03937633,-0.04789013,-0.0021284502,0.016601563,0.44921875,0.0024414063,0.8930664
17/07/11 05:04:36:412,2179,-0.7421875,-0.028808594,0.5769043,-0.03937633,-0.04789013,-0.0021284502,0.016601563,0.44921875,0.0024414063,0.8930664
17/07/11 05:04:36:417,2184,-0.7312012,0.07910156,0.5930176,-0.026605628,-0.04576168,-0.0053211255,0.012207031,0.4506836,0.0,0.8925781
17/07/11 05:04:36:422,2189,-0.7312012,0.07910156,0.5930176,-0.026605628,-0.04576168,-0.0053211255,0.012207031,0.4506836,0.0,0.8925781
17/07/11 05:04:36:428,2195,-0.74194336,0.016601563,0.58935547,-0.036183655,-0.05001858,0.008513801,0.017578125,0.44677734,0.0029296875,0.89404297
17/07/11 05:04:36:436,2203,-0.7873535,0.057617188,0.5686035,-0.030862529,-0.036183655,0.0074495757,0.016113281,0.44433594,0.001953125,0.8955078
17/07/11 05:04:36:441,2208,-0.7873535,0.057617188,0.5686035,-0.030862529,-0.036183655,0.0074495757,0.016113281,0.44433594,0.001953125,0.8955078
17/07/11 05:04:36:447,2214,-0.7480469,0.0,0.57958984,-0.036183655,-0.04576168,-0.0021284502,0.018554688,0.44628906,0.0034179688,0.89453125
17/07/11 05:04:36:452,2219,-0.7480469,0.0,0.57958984,-0.036183655,-0.04576168,-0.0021284502,0.018554688,0.44628906,0.0034179688,0.89453125
17/07/11 05:04:36:458,2225,-0.8015137,-0.018554688,0.5354004,-0.03192675,-0.04576168,0.012770701,0.015136719,0.44482422,0.0014648438,0.89501953
17/07/11 05:04:36:463,2230,-0.8015137,-0.018554688,0.5354004,-0.03192675,-0.04576168,0.012770701,0.015136719,0.44482422,0.0014648438,0.89501953
17/07/11 05:04:36:468,2235,-0.73950195,0.049316406,0.58740234,-0.030862529,-0.042569004,-0.0010642251,0.013183594,0.44726563,4.8828125E-4,0.89404297
17/07/11 05:04:36:473,2240,-0.74975586,0.01977539,0.5834961,-0.034055203,-0.051082805,0.0074495757,0.017578125,0.4428711,0.0029296875,0.8959961
17/07/11 05:04:36:478,2245,-0.74975586,0.01977539,0.5834961,-0.034055203,-0.051082805,0.0074495757,0.017578125,0.4428711,0.0029296875,0.8959961
17/07/11 05:04:36:483,2250,-0.74975586,0.01977539,0.5834961,-0.034055203,-0.051082805,0.0074495757,0.017578125,0.4428711,0.0029296875,0.8959961
17/07/11 05:04:36:489,2256,-0.76904297,0.048828125,0.5756836,-0.030862529,-0.041504778,0.0042569004,0.016113281,0.44189453,0.001953125,0.8964844
17/07/11 05:04:36:494,2261,-0.7480469,0.034423828,0.5827637,-0.034055203,-0.041504778,0.0010642251,0.017578125,0.4428711,0.0029296875,0.8959961
17/07/11 05:04:36:499,2266,-0.7480469,0.034423828,0.5827637,-0.034055203,-0.041504778,0.0010642251,0.017578125,0.4428711,0.0029296875,0.8959961
17/07/11 05:04:36:505,2272,-0.7480469,0.034423828,0.5827637,-0.034055203,-0.041504778,0.0010642251,0.017578125,0.4428711,0.0029296875,0.8959961
17/07/11 05:04:36:510,2277,-0.7480469,0.034423828,0.5827637,-0.034055203,-0.041504778,0.0010642251,0.017578125,0.4428711,0.0029296875,0.8959961
17/07/11 05:04:36:515,2282,-0.7480469,0.034423828,0.5827637,-0.034055203,-0.041504778,0.0010642251,0.017578125,0.4428711,0.0029296875,0.8959961
17/07/11 05:04:36:520,2287,-0.7480469,0.034423828,0.5827637,-0.034055203,-0.041504778,0.0010642251,0.017578125,0.4428711,0.0029296875,0.8959961
17/07/11 05:04:36:525,2292,-0.7480469,0.034423828,0.5827637,-0.034055203,-0.041504778,0.0010642251,0.017578125,0.4428711,0.0029296875,0.8959961
17/07/11 05:04:36:531,2298,-0.79248047,-0.018066406,0.5480957,-0.037247878,-0.04576168,0.010642251,0.017578125,0.44140625,0.0029296875,0.89697266
17/07/11 05:04:36:537,2304,-0.7692871,0.03857422,0.5727539,-0.03192675,-0.044697456,0.0074495757,0.017089844,0.44189453,0.0024414063,0.89697266
17/07/11 05:04:36:542,2309,-0.7692871,0.03857422,0.5727539,-0.03192675,-0.044697456,0.0074495757,0.017089844,0.44189453,0.0024414063,0.89697266
17/07/11 05:04:36:547,2314,-0.74780273,0.05517578,0.57788086,-0.030862529,-0.041504778,-0.0,0.017578125,0.4428711,0.0029296875,0.8959961
17/07/11 05:04:36:552,2319,-0.74780273,0.05517578,0.57788086,-0.030862529,-0.041504778,-0.0,0.017578125,0.4428711,0.0029296875,0.8959961
17/07/11 05:04:36:559,2326,-0.74780273,0.05517578,0.57788086,-0.030862529,-0.041504778,-0.0,0.017578125,0.4428711,0.0029296875,0.8959961
17/07/11 05:04:36:565,2332,-0.74780273,0.05517578,0.57788086,-0.030862529,-0.041504778,-0.0,0.017578125,0.4428711,0.0029296875,0.8959961
17/07/11 05:04:36:570,2337,-0.74780273,0.05517578,0.57788086,-0.030862529,-0.041504778,-0.0,0.017578125,0.4428711,0.0029296875,0.8959961
17/07/11 05:04:36:575,2342,-0.74780273,0.05517578,0.57788086,-0.030862529,-0.041504778,-0.0,0.017578125,0.4428711,0.0029296875,0.8959961
17/07/11 05:04:36:580,2347,-0.782959,-9.765625E-4,0.55126953,-0.03511943,-0.044697456,0.008513801,0.019042969,0.4423828,0.00390625,0.8964844
17/07/11 05:04:36:585,2352,-0.7800293,0.029296875,0.56933594,-0.03192675,-0.044697456,0.008513801,0.015625,0.44384766,0.001953125,0.8955078
17/07/11 05:04:36:590,2357,-0.7800293,0.029296875,0.56933594,-0.03192675,-0.044697456,0.008513801,0.015625,0.44384766,0.001953125,0.8955078
17/07/11 05:04:36:595,2362,-0.7800293,0.029296875,0.56933594,-0.03192675,-0.044697456,0.008513801,0.015625,0.44384766,0.001953125,0.8955078
17/07/11 05:04:36:602,2369,-0.7800293,0.029296875,0.56933594,-0.03192675,-0.044697456,0.008513801,0.015625,0.44384766,0.001953125,0.8955078
17/07/11 05:04:36:607,2374,-0.7800293,0.029296875,0.56933594,-0.03192675,-0.044697456,0.008513801,0.015625,0.44384766,0.001953125,0.8955078
17/07/11 05:04:36:612,2379,-0.7800293,0.029296875,0.56933594,-0.03192675,-0.044697456,0.008513801,0.015625,0.44384766,0.001953125,0.8955078
17/07/11 05:04:36:617,2384,-0.73168945,0.047851563,0.57714844,-0.032990977,-0.04363323,-0.0021284502,0.015625,0.44384766,0.001953125,0.8955078
17/07/11 05:04:36:622,2389,-0.7438965,-0.010009766,0.5793457,-0.03937633,-0.04363323,-0.0042569004,0.013671875,0.4477539,9.765625E-4,0.89404297
17/07/11 05:04:36:628,2395,-0.63916016,-0.010009766,0.5793457,-0.03937633,-0.04363323,-0.0042569004,0.018554688,0.44335938,0.0034179688,0.8959961
17/07/11 05:04:36:633,2400,-0.75097656,-0.016113281,0.5559082,-0.032990977,-0.04363323,0.015963376,0.015625,0.43847656,0.001953125,0.8984375
17/07/11 05:04:36:638,2405,-0.75097656,-0.016113281,0.5559082,-0.032990977,-0.04363323,0.015963376,0.015625,0.43847656,0.001953125,0.8984375
17/07/11 05:04:36:643,2410,-0.81396484,0.05859375,0.5773926,-0.028734077,-0.04576168,0.009578026,0.009277344,0.44189453,-4.8828125E-4,0.89697266
17/07/11 05:04:36:648,2415,-0.81396484,0.05859375,0.5773926,-0.028734077,-0.04576168,0.009578026,0.009277344,0.44189453,-4.8828125E-4,0.89697266
17/07/11 05:04:36:653,2420,-0.77246094,0.037597656,0.5554199,-0.034055203,-0.05214703,-0.0,0.014160156,0.44580078,0.0014648438,0.89501953
17/07/11 05:04:36:658,2425,-0.77246094,0.037597656,0.5554199,-0.034055203,-0.05214703,-0.0,0.014160156,0.44580078,0.0014648438,0.89501953
17/07/11 05:04:36:663,2430,-0.7922363,0.079833984,0.57470703,-0.030862529,-0.042569004,0.008513801,0.015625,0.4482422,0.001953125,0.8935547
17/07/11 05:04:36:669,2436,-0.7922363,0.079833984,0.57470703,-0.030862529,-0.042569004,0.008513801,0.015625,0.4482422,0.001953125,0.8935547
17/07/11 05:04:36:675,2442,-0.7702637,0.04296875,0.5786133,-0.037247878,-0.04363323,0.0031926753,0.019042969,0.44921875,0.0034179688,0.8930664
17/07/11 05:04:36:680,2447,-0.7702637,0.04296875,0.5786133,-0.037247878,-0.04363323,0.0031926753,0.019042969,0.44921875,0.0034179688,0.8930664
17/07/11 05:04:36:685,2452,-0.7663574,-0.009765625,0.56396484,-0.03937633,-0.042569004,0.0053211255,0.020019531,0.4482422,0.0043945313,0.8935547
17/07/11 05:04:36:690,2457,-0.7663574,-0.009765625,0.56396484,-0.03937633,-0.042569004,0.0053211255,0.020019531,0.4482422,0.0043945313,0.8935547
17/07/11 05:04:36:695,2462,-0.7663574,-0.009765625,0.56396484,-0.03937633,-0.042569004,0.0053211255,0.020019531,0.4482422,0.0043945313,0.8935547
17/07/11 05:04:36:700,2467,-0.7663574,-0.009765625,0.56396484,-0.03937633,-0.042569004,0.0053211255,0.020019531,0.4482422,0.0043945313,0.8935547
17/07/11 05:04:36:706,2473,-0.7663574,-0.009765625,0.56396484,-0.03937633,-0.042569004,0.0053211255,0.020019531,0.4482422,0.0043945313,0.8935547
17/07/11 05:04:36:711,2478,-0.7663574,-0.009765625,0.56396484,-0.03937633,-0.042569004,0.0053211255,0.020019531,0.4482422,0.0043945313,0.8935547
17/07/11 05:04:36:716,2483,-0.7663574,-0.009765625,0.56396484,-0.03937633,-0.042569004,0.0053211255,0.020019531,0.4482422,0.0043945313,0.8935547
17/07/11 05:04:36:721,2488,-0.74853516,0.021728516,0.576416,-0.029798303,-0.042569004,0.0010642251,0.016601563,0.44873047,0.0024414063,0.8935547
17/07/11 05:04:36:726,2493,-0.74853516,0.021728516,0.576416,-0.029798303,-0.042569004,0.0010642251,0.016601563,0.44873047,0.0024414063,0.8935547
17/07/11 05:04:36:731,2498,-0.77124023,0.026611328,0.5949707,-0.036183655,-0.042569004,0.010642251,0.016601563,0.4477539,0.0024414063,0.89404297
17/07/11 05:04:36:736,2503,-0.76904297,0.01171875,0.5703125,-0.034055203,-0.04363323,0.008513801,0.016113281,0.44628906,0.0024414063,0.89453125
17/07/11 05:04:36:741,2508,-0.76904297,0.01171875,0.5703125,-0.034055203,-0.04363323,0.008513801,0.016113281,0.44628906,0.0024414063,0.89453125
17/07/11 05:04:36:746,2513,-0.76904297,0.01171875,0.5703125,-0.034055203,-0.04363323,0.008513801,0.016113281,0.44628906,0.0024414063,0.89453125
17/07/11 05:04:36:751,2518,-0.76904297,0.01171875,0.5703125,-0.034055203,-0.04363323,0.008513801,0.016113281,0.44628906,0.0024414063,0.89453125
17/07/11 05:04:36:756,2523,-0.76904297,0.01171875,0.5703125,-0.034055203,-0.04363323,0.008513801,0.016113281,0.44628906,0.0024414063,0.89453125
17/07/11 05:04:36:761,2528,-0.76904297,0.01171875,0.5703125,-0.034055203,-0.04363323,0.008513801,0.016113281,0.44628906,0.0024414063,0.89453125
17/07/11 05:04:36:766,2533,-0.76904297,0.01171875,0.5703125,-0.034055203,-0.04363323,0.008513801,0.016113281,0.44628906,0.0024414063,0.89453125
17/07/11 05:04:36:771,2538,-0.73291016,-0.012939453,0.59814453,-0.03511943,-0.04363323,-0.0031926753,0.0146484375,0.44677734,0.0014648438,0.89404297
17/07/11 05:04:36:776,2543,-0.78686523,0.029296875,0.5715332,-0.029798303,-0.04576168,0.0042569004,0.012207031,0.4482422,0.0,0.8935547
17/07/11 05:04:36:781,2548,-0.78686523,0.029296875,0.5715332,-0.029798303,-0.04576168,0.0042569004,0.012207031,0.4482422,0.0,0.8935547
17/07/11 05:04:36:786,2553,-0.74438477,0.079833984,0.57250977,-0.028734077,-0.042569004,0.0021284502,0.0126953125,0.44921875,4.8828125E-4,0.8930664
17/07/11 05:04:36:791,2558,-0.74438477,0.079833984,0.57250977,-0.028734077,-0.042569004,0.0021284502,0.0126953125,0.44921875,4.8828125E-4,0.8930664
17/07/11 05:04:36:796,2563,-0.73339844,0.06567383,0.6032715,-0.053211257,-0.025541402,0.0042569004,0.016113281,0.4482422,0.0024414063,0.8935547
17/07/11 05:04:36:801,2568,-0.73339844,0.06567383,0.6032715,-0.053211257,-0.025541402,0.0042569004,0.016113281,0.4482422,0.0024414063,0.8935547
17/07/11 05:04:36:806,2573,-0.7675781,0.0625,0.5722656,-0.06491773,-0.0021284502,0.0031926753,0.017089844,0.44726563,0.0029296875,0.89404297
17/07/11 05:04:36:811,2578,-0.7675781,0.0625,0.5722656,-0.06491773,-0.0021284502,0.0031926753,0.017089844,0.44726563,0.0029296875,0.89404297
17/07/11 05:04:36:816,2583,-0.8149414,-0.07128906,0.52246094,-0.029798303,-0.055339705,0.008513801,0.019042969,0.44726563,0.00390625,0.89404297
17/07/11 05:04:36:821,2588,-0.8149414,-0.07128906,0.52246094,-0.029798303,-0.055339705,0.008513801,0.019042969,0.44726563,0.00390625,0.89404297
17/07/11 05:04:36:827,2594,-0.76904297,-0.049560547,0.5690918,-0.018091828,-0.06066083,0.0031926753,0.013183594,0.45117188,9.765625E-4,0.89208984
17/07/11 05:04:36:833,2600,-0.76904297,-0.049560547,0.5690918,-0.018091828,-0.06066083,0.0031926753,0.013183594,0.45117188,9.765625E-4,0.89208984
17/07/11 05:04:36:838,2605,-0.7446289,0.028808594,0.5695801,-0.061725058,-0.013834926,0.0063853506,0.009765625,0.4506836,-4.8828125E-4,0.89208984
17/07/11 05:04:36:843,2610,-0.7446289,0.028808594,0.5695801,-0.061725058,-0.013834926,0.0063853506,0.009765625,0.4506836,-4.8828125E-4,0.89208984
17/07/11 05:04:36:848,2615,-0.7644043,-0.011474609,0.58813477,-0.032990977,-0.06066083,0.011706476,0.011230469,0.4482422,4.8828125E-4,0.8935547
17/07/11 05:04:36:853,2620,-0.7373047,0.110839844,0.5822754,0.019156052,-0.07023886,0.0053211255,0.009765625,0.4477539,0.0,0.89404297
17/07/11 05:04:36:858,2625,-0.7373047,0.110839844,0.5822754,0.019156052,-0.07023886,0.0053211255,0.009765625,0.4477539,0.0,0.89404297
17/07/11 05:04:36:863,2630,-0.7373047,0.110839844,0.5822754,0.019156052,-0.07023886,0.0053211255,0.009765625,0.4477539,0.0,0.89404297
17/07/11 05:04:36:869,2636,-0.7631836,0.056396484,0.5307617,-0.036183655,-0.042569004,0.011706476,0.016601563,0.44580078,0.0024414063,0.89453125
17/07/11 05:04:36:874,2641,-0.8041992,-0.076416016,0.5671387,-0.05853238,-0.03937633,0.013834926,0.018554688,0.4482422,0.0034179688,0.8935547
17/07/11 05:04:36:879,2646,-0.8041992,-0.076416016,0.5671387,-0.05853238,-0.03937633,0.013834926,0.018554688,0.4482422,0.0034179688,0.8935547
17/07/11 05:04:36:884,2651,-0.7380371,0.104003906,0.5805664,0.0,-0.048954353,0.0042569004,0.018554688,0.4482422,0.0034179688,0.8935547
17/07/11 05:04:36:889,2656,-0.7380371,0.104003906,0.5805664,0.0,-0.048954353,0.0042569004,0.01171875,0.4501953,0.0,0.8925781
17/07/11 05:04:36:894,2661,-0.7426758,0.05444336,0.6113281,-0.034055203,-0.051082805,0.0063853506,0.018066406,0.4477539,0.0034179688,0.8935547
17/07/11 05:04:36:900,2667,-0.7426758,0.05444336,0.6113281,-0.034055203,-0.051082805,0.0063853506,0.018066406,0.4477539,0.0034179688,0.8935547
17/07/11 05:04:36:905,2672,-0.7529297,-0.014404297,0.57836914,-0.057468154,-0.026605628,-0.0,0.01953125,0.44482422,0.00390625,0.89501953
17/07/11 05:04:36:910,2677,-0.7529297,-0.014404297,0.57836914,-0.057468154,-0.026605628,-0.0,0.01953125,0.44482422,0.00390625,0.89501953
17/07/11 05:04:36:915,2682,-0.7529297,-0.014404297,0.57836914,-0.057468154,-0.026605628,-0.0,0.01953125,0.44482422,0.00390625,0.89501953
17/07/11 05:04:36:920,2687,-0.7529297,-0.014404297,0.57836914,-0.057468154,-0.026605628,-0.0,0.01953125,0.44482422,0.00390625,0.89501953
17/07/11 05:04:36:925,2692,-0.7529297,-0.014404297,0.57836914,-0.057468154,-0.026605628,-0.0,0.01953125,0.44482422,0.00390625,0.89501953
17/07/11 05:04:36:930,2697,-0.7529297,-0.014404297,0.57836914,-0.057468154,-0.026605628,-0.0,0.01953125,0.44482422,0.00390625,0.89501953
17/07/11 05:04:36:935,2702,-0.7529297,-0.014404297,0.57836914,-0.057468154,-0.026605628,-0.0,0.01953125,0.44482422,0.00390625,0.89501953
17/07/11 05:04:36:941,2708,-0.7282715,0.041748047,0.59350586,-0.07023886,-0.009578026,-0.0010642251,0.0146484375,0.4482422,0.0014648438,0.8935547
17/07/11 05:04:36:946,2713,-0.7282715,0.041748047,0.59350586,-0.07023886,-0.009578026,-0.0010642251,0.0146484375,0.4482422,0.0014648438,0.8935547
17/07/11 05:04:36:951,2718,-0.77612305,0.050048828,0.5690918,-0.053211257,-0.027669853,0.008513801,0.015625,0.4453125,0.0024414063,0.89501953
17/07/11 05:04:36:956,2723,-0.7739258,0.08325195,0.5732422,-0.029798303,-0.041504778,-0.0,0.018066406,0.44726563,0.00390625,0.89404297
17/07/11 05:04:36:962,2729,-0.7739258,0.08325195,0.5732422,-0.029798303,-0.041504778,-0.0,0.018066406,0.44726563,0.00390625,0.89404297
17/07/11 05:04:36:967,2734,-0.7739258,0.08325195,0.5732422,-0.029798303,-0.041504778,-0.0,0.018066406,0.44726563,0.00390625,0.89404297
17/07/11 05:04:36:972,2739,-0.7739258,0.08325195,0.5732422,-0.029798303,-0.041504778,-0.0,0.018066406,0.44726563,0.00390625,0.89404297
17/07/11 05:04:36:977,2744,-0.7739258,0.08325195,0.5732422,-0.029798303,-0.041504778,-0.0,0.018066406,0.44726563,0.00390625,0.89404297
17/07/11 05:04:36:983,2750,-0.7739258,0.08325195,0.5732422,-0.029798303,-0.041504778,-0.0,0.018066406,0.44726563,0.00390625,0.89404297
17/07/11 05:04:36:988,2755,-0.7817383,4.8828125E-4,0.5456543,-0.065981954,-0.008513801,-0.0074495757,0.020019531,0.44726563,0.0043945313,0.89404297
17/07/11 05:04:36:993,2760,-0.7858887,-0.04663086,0.5600586,-0.061725058,-0.018091828,0.0031926753,0.020019531,0.44726563,0.0043945313,0.89404297
17/07/11 05:04:36:999,2766,-1.0422363,0.044433594,0.5866699,-0.013834926,-0.04576168,-0.080881104,0.013183594,0.45166016,0.0014648438,0.89208984
17/07/11 05:04:37:004,2771,-1.083252,-0.022705078,0.56225586,-0.044697456,-0.036183655,-0.41291934,0.013183594,0.45166016,0.0014648438,0.89208984
17/07/11 05:04:37:009,2776,-1.083252,-0.022705078,0.56225586,-0.044697456,-0.036183655,-0.41291934,0.0146484375,0.46240234,0.001953125,0.88671875
17/07/11 05:04:37:014,2781,-0.9655762,0.037841797,0.52441406,-0.017027602,-0.06066083,-0.8173249,0.013671875,0.4633789,0.0014648438,0.8857422
17/07/11 05:04:37:019,2786,-0.9655762,0.037841797,0.52441406,-0.017027602,-0.06066083,-0.8173249,0.013671875,0.4633789,0.0014648438,0.8857422
17/07/11 05:04:37:025,2792,-0.9655762,0.037841797,0.52441406,-0.017027602,-0.06066083,-0.8173249,0.013671875,0.4633789,0.0014648438,0.8857422
17/07/11 05:04:37:030,2797,-0.9655762,0.037841797,0.52441406,-0.017027602,-0.06066083,-0.8173249,0.013671875,0.4633789,0.0014648438,0.8857422
17/07/11 05:04:37:036,2803,-0.9655762,0.037841797,0.52441406,-0.017027602,-0.06066083,-0.8173249,0.013671875,0.4633789,0.0014648438,0.8857422
17/07/11 05:04:37:041,2808,-0.9655762,0.037841797,0.52441406,-0.017027602,-0.06066083,-0.8173249,0.013671875,0.4633789,0.0014648438,0.8857422
17/07/11 05:04:37:046,2813,-0.9296875,0.055664063,0.5600586,-0.019156052,-0.06917463,-1.1174364,0.014160156,0.46533203,0.0014648438,0.8847656
17/07/11 05:04:37:051,2818,-0.8574219,0.040283203,0.60424805,-0.027669853,-0.057468154,-1.5665393,0.0126953125,0.4584961,0.0,0.8881836
17/07/11 05:04:37:056,2823,-0.89208984,0.060058594,0.59716797,-0.021284502,-0.05853238,-1.7676779,0.014160156,0.45214844,9.765625E-4,0.89160156
17/07/11 05:04:37:061,2828,-0.89208984,0.060058594,0.59716797,-0.021284502,-0.05853238,-1.7676779,0.014160156,0.45214844,9.765625E-4,0.89160156
17/07/11 05:04:37:066,2833,-0.9289551,0.064697266,0.5930176,-0.011706476,-0.09045913,-2.0167065,0.015136719,0.4453125,9.765625E-4,0.89501953
17/07/11 05:04:37:071,2838,-0.9289551,0.064697266,0.5930176,-0.011706476,-0.09045913,-2.0167065,0.015136719,0.4453125,9.765625E-4,0.89501953
17/07/11 05:04:37:076,2843,-0.8989258,0.039794922,0.61743164,-0.036183655,-0.057468154,-2.3753505,0.015625,0.4375,9.765625E-4,0.8989258
17/07/11 05:04:37:090,2857,-0.92407227,0.025390625,0.6262207,-0.06704618,0.017027602,-2.7627285,0.016113281,0.42822266,4.8828125E-4,0.9033203
17/07/11 05:04:37:096,2863,-0.9499512,0.020996094,0.61083984,-0.079816885,0.03192675,-3.1692624,0.015625,0.4169922,4.8828125E-4,0.9086914
17/07/11 05:04:37:101,2868,-0.9499512,0.020996094,0.61083984,-0.079816885,0.03192675,-3.1692624,0.015625,0.4169922,4.8828125E-4,0.9086914
17/07/11 05:04:37:106,2873,-0.9499512,0.020996094,0.61083984,-0.079816885,0.03192675,-3.1692624,0.015625,0.4169922,4.8828125E-4,0.9086914
17/07/11 05:04:37:112,2879,-0.9499512,0.020996094,0.61083984,-0.079816885,0.03192675,-3.1692624,0.015625,0.4169922,4.8828125E-4,0.9086914
17/07/11 05:04:37:117,2884,-0.9499512,0.020996094,0.61083984,-0.079816885,0.03192675,-3.1692624,0.015625,0.4169922,4.8828125E-4,0.9086914
17/07/11 05:04:37:122,2889,-0.9499512,0.020996094,0.61083984,-0.079816885,0.03192675,-3.1692624,0.015625,0.4169922,4.8828125E-4,0.9086914
17/07/11 05:04:37:128,2895,-0.94506836,0.034179688,0.5930176,-0.074495755,0.044697456,-3.6407142,0.015625,0.40429688,9.765625E-4,0.9145508
17/07/11 05:04:37:133,2900,-0.94506836,0.034179688,0.5930176,-0.074495755,0.044697456,-3.6407142,0.015625,0.40429688,9.765625E-4,0.9145508
17/07/11 05:04:37:139,2906,-0.8300781,0.064453125,0.55908203,-0.071303084,0.021284502,-5.1178584,0.015625,0.35302734,9.765625E-4,0.9355469
17/07/11 05:04:37:144,2911,-0.7272949,0.05102539,0.62646484,-0.08726646,0.03511943,-5.572283,0.016113281,0.33203125,9.765625E-4,0.9428711
17/07/11 05:04:37:149,2916,-0.7272949,0.05102539,0.62646484,-0.08726646,0.03511943,-5.572283,0.016113281,0.33203125,9.765625E-4,0.9428711
17/07/11 05:04:37:154,2921,-0.748291,0.07714844,0.59814453,-0.12132166,0.07768843,-6.060762,0.017089844,0.31201172,0.0014648438,0.94970703
17/07/11 05:04:37:159,2926,-0.748291,0.07714844,0.59814453,-0.12132166,0.07768843,-6.060762,0.017089844,0.31201172,0.0014648438,0.94970703
17/07/11 05:04:37:164,2931,-0.748291,0.07714844,0.59814453,-0.12132166,0.07768843,-6.060762,0.017089844,0.31201172,0.0014648438,0.94970703
17/07/11 05:04:37:169,2936,-0.748291,0.07714844,0.59814453,-0.12132166,0.07768843,-6.060762,0.017089844,0.31201172,0.0014648438,0.94970703
17/07/11 05:04:37:174,2941,-0.748291,0.07714844,0.59814453,-0.12132166,0.07768843,-6.060762,0.017089844,0.31201172,0.0014648438,0.94970703
17/07/11 05:04:37:179,2946,-0.748291,0.07714844,0.59814453,-0.12132166,0.07768843,-6.060762,0.017089844,0.31201172,0.0014648438,0.94970703
17/07/11 05:04:37:185,2952,-0.748291,0.07714844,0.59814453,-0.12132166,0.07768843,-6.060762,0.017089844,0.31201172,0.0014648438,0.94970703
17/07/11 05:04:37:190,2957,-0.69433594,-0.024169922,0.57128906,-0.1266428,0.071303084,-6.6397004,0.017089844,0.28466797,0.0014648438,0.9584961
17/07/11 05:04:37:196,2963,-0.38061523,0.08129883,0.49316406,-0.06278928,0.09684449,-8.136001,0.015136719,0.20800781,9.765625E-4,0.97802734
17/07/11 05:04:37:201,2968,-0.38061523,0.08129883,0.49316406,-0.06278928,0.09684449,-8.136001,0.015136719,0.20800781,9.765625E-4,0.97802734
17/07/11 05:04:37:206,2973,-0.1772461,0.046875,0.3876953,-0.10429406,0.10003716,-8.519122,0.016601563,0.17138672,0.0014648438,0.9848633
17/07/11 05:04:37:211,2978,-0.1772461,0.046875,0.3876953,-0.10429406,0.10003716,-8.519122,0.016601563,0.17138672,0.0014648438,0.9848633
17/07/11 05:04:37:216,2983,-0.020507813,0.07519531,0.44311523,-0.11387209,0.03937633,-8.716003,0.026855469,0.140625,0.0029296875,0.9897461
17/07/11 05:04:37:221,2988,-0.020507813,0.07519531,0.44311523,-0.11387209,0.03937633,-8.716003,0.026855469,0.140625,0.0029296875,0.9897461
17/07/11 05:04:37:226,2993,0.21289063,0.055908203,0.40942383,-0.15963377,0.023412952,-8.866059,0.029785156,0.09033203,0.0029296875,0.9951172
17/07/11 05:04:37:231,2998,0.21289063,0.055908203,0.40942383,-0.15963377,0.023412952,-8.866059,0.029785156,0.09033203,0.0029296875,0.9951172
17/07/11 05:04:37:236,3003,0.20385742,0.032714844,0.375,-0.2245515,0.07875266,-8.897986,0.03125,0.030273438,0.0029296875,0.99902344
17/07/11 05:04:37:241,3008,0.20385742,0.032714844,0.375,-0.2245515,0.07875266,-8.897986,0.03125,0.030273438,0.0029296875,0.99902344
17/07/11 05:04:37:246,3013,0.28271484,-0.049804688,0.2998047,-0.14579883,0.026605628,-8.957582,0.030273438,-0.015625,0.001953125,0.9995117
17/07/11 05:04:37:251,3018,0.28271484,-0.049804688,0.2998047,-0.14579883,0.026605628,-8.957582,0.030273438,-0.015625,0.001953125,0.9995117
17/07/11 05:04:37:256,3023,0.43554688,-0.024169922,0.26904297,-0.019156052,-0.06491773,-8.984188,0.027832031,-0.067871094,0.0014648438,0.9970703
17/07/11 05:04:37:262,3029,0.43554688,-0.024169922,0.26904297,-0.019156052,-0.06491773,-8.984188,0.027832031,-0.067871094,0.0014648438,0.9970703
17/07/11 05:04:37:267,3034,0.5500488,0.11254883,0.32421875,0.037247878,-0.1266428,-8.896922,0.02734375,-0.12060547,0.0,0.9921875
17/07/11 05:04:37:272,3039,0.5500488,0.11254883,0.32421875,0.037247878,-0.1266428,-8.896922,0.02734375,-0.12060547,0.0,0.9921875
17/07/11 05:04:37:277,3044,0.67871094,0.041259766,0.26831055,-0.053211257,-0.010642251,-8.883087,0.029296875,-0.171875,-9.765625E-4,0.984375
17/07/11 05:04:37:282,3049,0.67871094,0.041259766,0.26831055,-0.053211257,-0.010642251,-8.883087,0.029296875,-0.171875,-9.765625E-4,0.984375
17/07/11 05:04:37:288,3055,0.76586914,0.05908203,0.22192383,-0.10003716,-0.04789013,-8.785178,0.029296875,-0.22265625,-0.001953125,0.9741211
17/07/11 05:04:37:293,3060,0.76586914,0.05908203,0.22192383,-0.10003716,-0.04789013,-8.785178,0.029296875,-0.22265625,-0.001953125,0.9741211
17/07/11 05:04:37:298,3065,0.8244629,-0.01928711,0.1640625,-0.123450115,-0.05001858,-8.660664,0.029296875,-0.27246094,-0.0029296875,0.9614258
17/07/11 05:04:37:303,3070,0.8244629,-0.01928711,0.1640625,-0.123450115,-0.05001858,-8.660664,0.029296875,-0.27246094,-0.0029296875,0.9614258
17/07/11 05:04:37:308,3075,0.8088379,-0.022705078,0.12890625,-0.09578026,-0.015963376,-8.503159,0.028320313,-0.3203125,-0.0043945313,0.94677734
17/07/11 05:04:37:313,3080,0.8088379,-0.022705078,0.12890625,-0.09578026,-0.015963376,-8.503159,0.028320313,-0.3203125,-0.0043945313,0.94677734
17/07/11 05:04:37:318,3085,0.8654785,0.043945313,0.037597656,-0.09684449,-0.020220276,-8.4127,0.02734375,-0.3618164,-0.0053710938,0.9316406
17/07/11 05:04:37:323,3090,0.8654785,0.043945313,0.037597656,-0.09684449,-0.020220276,-8.4127,0.02734375,-0.3618164,-0.0053710938,0.9316406
17/07/11 05:04:37:328,3095,0.8654785,0.043945313,0.037597656,-0.09684449,-0.020220276,-8.4127,0.02734375,-0.3618164,-0.0053710938,0.9316406
17/07/11 05:04:37:333,3100,0.8654785,0.043945313,0.037597656,-0.09684449,-0.020220276,-8.4127,0.02734375,-0.3618164,-0.0053710938,0.9316406
17/07/11 05:04:37:338,3105,0.8654785,0.043945313,0.037597656,-0.09684449,-0.020220276,-8.4127,0.02734375,-0.3618164,-0.0053710938,0.9316406
17/07/11 05:04:37:343,3110,0.8654785,0.043945313,0.037597656,-0.09684449,-0.020220276,-8.4127,0.02734375,-0.3618164,-0.0053710938,0.9316406
17/07/11 05:04:37:348,3115,0.8654785,0.043945313,0.037597656,-0.09684449,-0.020220276,-8.4127,0.02734375,-0.3618164,-0.0053710938,0.9316406
17/07/11 05:04:37:353,3120,0.8366699,-0.0048828125,-0.024658203,-0.11174364,-0.013834926,-8.317984,0.026855469,-0.40722656,-0.0063476563,0.91308594
17/07/11 05:04:37:358,3125,1.4257813,-0.025146484,0.030517578,-0.09684449,-0.032990977,-6.319369,0.020019531,-0.5600586,-0.0063476563,0.8286133
17/07/11 05:04:37:363,3130,1.3959961,0.122558594,-0.008056641,0.0053211255,0.022348728,-5.6127234,0.020019531,-0.5600586,-0.0063476563,0.8286133
17/07/11 05:04:37:368,3135,1.3959961,0.122558594,-0.008056641,0.0053211255,0.022348728,-5.6127234,0.018066406,-0.59521484,-0.005859375,0.80322266
17/07/11 05:04:37:373,3140,1.3959961,0.122558594,-0.008056641,0.0053211255,0.022348728,-5.6127234,0.018066406,-0.59521484,-0.005859375,0.80322266
17/07/11 05:04:37:378,3145,1.3959961,0.122558594,-0.008056641,0.0053211255,0.022348728,-5.6127234,0.018066406,-0.59521484,-0.005859375,0.80322266
17/07/11 05:04:37:383,3150,1.3959961,0.122558594,-0.008056641,0.0053211255,0.022348728,-5.6127234,0.018066406,-0.59521484,-0.005859375,0.80322266
17/07/11 05:04:37:388,3155,1.3959961,0.122558594,-0.008056641,0.0053211255,0.022348728,-5.6127234,0.018066406,-0.59521484,-0.005859375,0.80322266
17/07/11 05:04:37:394,3161,1.3959961,0.122558594,-0.008056641,0.0053211255,0.022348728,-5.6127234,0.018066406,-0.59521484,-0.005859375,0.80322266
17/07/11 05:04:37:399,3166,1.3962402,0.13598633,-0.03857422,-0.041504778,0.03192675,-5.000794,0.019042969,-0.6220703,-0.0063476563,0.78271484
17/07/11 05:04:37:405,3172,1.3442383,-0.030761719,0.016357422,-0.03937633,0.010642251,-3.3480523,0.017089844,-0.6801758,-0.0063476563,0.73291016
17/07/11 05:04:37:410,3177,1.3442383,-0.030761719,0.016357422,-0.03937633,0.010642251,-3.3480523,0.017089844,-0.6801758,-0.0063476563,0.73291016
17/07/11 05:04:37:415,3182,1.3442383,-0.030761719,0.016357422,-0.03937633,0.010642251,-3.3480523,0.017089844,-0.6801758,-0.0063476563,0.73291016
17/07/11 05:04:37:420,3187,1.3442383,-0.030761719,0.016357422,-0.03937633,0.010642251,-3.3480523,0.017089844,-0.6801758,-0.0063476563,0.73291016
17/07/11 05:04:37:425,3192,1.3442383,-0.030761719,0.016357422,-0.03937633,0.010642251,-3.3480523,0.017089844,-0.6801758,-0.0063476563,0.73291016
17/07/11 05:04:37:430,3197,1.3442383,-0.030761719,0.016357422,-0.03937633,0.010642251,-3.3480523,0.017089844,-0.6801758,-0.0063476563,0.73291016
17/07/11 05:04:37:435,3202,1.3442383,-0.030761719,0.016357422,-0.03937633,0.010642251,-3.3480523,0.017089844,-0.6801758,-0.0063476563,0.73291016
17/07/11 05:04:37:440,3207,1.3530273,0.033691406,0.034179688,-0.028734077,-0.009578026,-2.8989491,0.016113281,-0.6928711,-0.005859375,0.72021484
17/07/11 05:04:37:445,3212,1.467041,-0.028320313,-0.045166016,-0.061725058,-0.03937633,-0.8513801,0.009765625,-0.7246094,0.0,0.68896484
17/07/11 05:04:37:450,3217,1.467041,-0.028320313,-0.045166016,-0.061725058,-0.03937633,-0.8513801,0.009765625,-0.7246094,0.0,0.68896484
17/07/11 05:04:37:455,3222,1.4086914,0.029541016,-0.012451172,-0.04789013,-0.05001858,-0.13302813,0.0087890625,-0.7270508,9.765625E-4,0.68652344
17/07/11 05:04:37:460,3227,1.4086914,0.029541016,-0.012451172,-0.04789013,-0.05001858,-0.13302813,0.0087890625,-0.7270508,9.765625E-4,0.68652344
17/07/11 05:04:37:465,3232,1.4086914,0.029541016,-0.012451172,-0.04789013,-0.05001858,-0.13302813,0.0087890625,-0.7270508,9.765625E-4,0.68652344
17/07/11 05:04:37:470,3237,1.6313477,0.064453125,0.042236328,-0.097908705,-0.05640393,0.4831582,0.0087890625,-0.72558594,4.8828125E-4,0.6879883
17/07/11 05:04:37:475,3242,1.7658691,-0.09716797,-0.106933594,-0.15963377,-0.017027602,1.3100611,0.011230469,-0.7163086,-0.001953125,0.6972656
17/07/11 05:04:37:481,3248,1.7658691,-0.09716797,-0.106933594,-0.15963377,-0.017027602,1.3100611,0.011230469,-0.7163086,-0.001953125,0.6972656
17/07/11 05:04:37:486,3253,1.4411621,0.01977539,-0.084228516,-0.037247878,-0.032990977,2.5732963,0.0014648438,-0.7163086,0.0068359375,0.6977539
17/07/11 05:04:37:492,3259,1.4411621,0.01977539,-0.084228516,-0.037247878,-0.032990977,2.5732963,0.0014648438,-0.7163086,0.0068359375,0.6977539
17/07/11 05:04:37:497,3264,1.4064941,0.049072266,-0.015625,-0.010642251,-0.04789013,3.2671711,0.005859375,-0.71435547,0.001953125,0.69970703
17/07/11 05:04:37:503,3270,1.5231934,0.026123047,-0.05493164,-0.0053211255,-0.048954353,3.8163111,0.008300781,-0.70166016,0.0,0.71191406
17/07/11 05:04:37:508,3275,1.5231934,0.026123047,-0.05493164,-0.0053211255,-0.048954353,3.8163111,0.008300781,-0.70166016,0.0,0.71191406
17/07/11 05:04:37:513,3280,1.5231934,0.026123047,-0.05493164,-0.0053211255,-0.048954353,3.8163111,0.008300781,-0.70166016,0.0,0.71191406
17/07/11 05:04:37:518,3285,1.5231934,0.026123047,-0.05493164,-0.0053211255,-0.048954353,3.8163111,0.008300781,-0.70166016,0.0,0.71191406
17/07/11 05:04:37:524,3291,1.5231934,0.026123047,-0.05493164,-0.0053211255,-0.048954353,3.8163111,0.008300781,-0.70166016,0.0,0.71191406
17/07/11 05:04:37:529,3296,1.5231934,0.026123047,-0.05493164,-0.0053211255,-0.048954353,3.8163111,0.008300781,-0.70166016,0.0,0.71191406
17/07/11 05:04:37:534,3301,1.5231934,0.026123047,-0.05493164,-0.0053211255,-0.048954353,3.8163111,0.008300781,-0.70166016,0.0,0.71191406
17/07/11 05:04:37:539,3306,1.5546875,0.033203125,-0.023925781,0.011706476,-0.05214703,4.631508,0.009277344,-0.6923828,0.0,0.7211914
17/07/11 05:04:37:544,3311,1.3710938,0.19018555,-0.027832031,0.2671205,0.026605628,6.055441,0.0053710938,-0.6645508,0.0043945313,0.7470703
17/07/11 05:04:37:549,3316,1.2260742,0.18530273,0.03955078,0.080881104,0.1734687,6.613095,0.020507813,-0.65625,-0.0063476563,0.75439453
17/07/11 05:04:37:554,3321,1.2670898,0.013183594,0.008056641,0.05214703,-0.03511943,7.214382,0.023925781,-0.6347656,-0.0078125,0.77246094
17/07/11 05:04:37:559,3326,1.2670898,0.013183594,0.008056641,0.05214703,-0.03511943,7.214382,0.023925781,-0.6347656,-0.0078125,0.77246094
17/07/11 05:04:37:564,3331,1.2670898,0.013183594,0.008056641,0.05214703,-0.03511943,7.214382,0.023925781,-0.6347656,-0.0078125,0.77246094
17/07/11 05:04:37:569,3336,1.2670898,0.013183594,0.008056641,0.05214703,-0.03511943,7.214382,0.023925781,-0.6347656,-0.0078125,0.77246094
17/07/11 05:04:37:574,3341,1.2670898,0.013183594,0.008056641,0.05214703,-0.03511943,7.214382,0.023925781,-0.6347656,-0.0078125,0.77246094
17/07/11 05:04:37:580,3347,1.2670898,0.013183594,0.008056641,0.05214703,-0.03511943,7.214382,0.023925781,-0.6347656,-0.0078125,0.77246094
17/07/11 05:04:37:585,3352,1.2670898,0.013183594,0.008056641,0.05214703,-0.03511943,7.214382,0.023925781,-0.6347656,-0.0078125,0.77246094
17/07/11 05:04:37:590,3357,1.114502,0.060546875,0.06542969,0.05427548,-0.10855096,7.7135034,0.023925781,-0.6113281,-0.0053710938,0.7910156
17/07/11 05:04:37:595,3362,0.9602051,-0.056152344,0.10913086,0.07555998,-0.127707,8.392479,0.024902344,-0.5571289,-0.0029296875,0.8300781
17/07/11 05:04:37:600,3367,0.7438965,0.029785156,0.083984375,0.07343153,-0.13622081,8.61171,0.023925781,-0.52734375,-4.8828125E-4,0.8491211
17/07/11 05:04:37:605,3372,0.74487305,-0.05053711,0.20507813,0.040440552,-0.13196391,8.656407,0.024902344,-0.50146484,0.0,0.8647461
17/07/11 05:04:37:610,3377,0.74487305,-0.05053711,0.20507813,0.040440552,-0.13196391,8.656407,0.024902344,-0.50146484,0.0,0.8647461
17/07/11 05:04:37:615,3382,0.74487305,-0.05053711,0.20507813,0.040440552,-0.13196391,8.656407,0.024902344,-0.50146484,0.0,0.8647461
17/07/11 05:04:37:620,3387,0.74487305,-0.05053711,0.20507813,0.040440552,-0.13196391,8.656407,0.024902344,-0.50146484,0.0,0.8647461
17/07/11 05:04:37:625,3392,0.74487305,-0.05053711,0.20507813,0.040440552,-0.13196391,8.656407,0.024902344,-0.50146484,0.0,0.8647461
17/07/11 05:04:37:630,3397,0.51708984,0.013671875,0.2709961,0.06917463,-0.15218419,8.738352,0.0234375,-0.46875,0.0024414063,0.8828125
17/07/11 05:04:37:636,3403,0.49316406,0.016845703,0.3852539,0.06704618,-0.15324841,8.549984,0.022949219,-0.40527344,0.0048828125,0.9140625
17/07/11 05:04:37:641,3408,0.49316406,0.016845703,0.3852539,0.06704618,-0.15324841,8.549984,0.022949219,-0.40527344,0.0048828125,0.9140625
17/07/11 05:04:37:646,3413,0.32080078,0.046875,0.3955078,0.06811041,-0.097908705,8.466975,0.022460938,-0.37158203,0.005859375,0.9277344
17/07/11 05:04:37:651,3418,0.32080078,0.046875,0.3955078,0.06811041,-0.097908705,8.466975,0.022460938,-0.37158203,0.005859375,0.9277344
17/07/11 05:04:37:657,3424,0.21704102,-9.765625E-4,0.4560547,0.08194533,-0.05853238,8.372259,0.026367188,-0.32666016,0.0053710938,0.9448242
17/07/11 05:04:37:662,3429,0.21704102,-9.765625E-4,0.4560547,0.08194533,-0.05853238,8.372259,0.026367188,-0.32666016,0.0053710938,0.9448242
17/07/11 05:04:37:667,3434,0.09301758,0.028808594,0.4584961,0.123450115,-0.009578026,8.297763,0.025390625,-0.28027344,0.0068359375,0.95947266
17/07/11 05:04:37:672,3439,0.09301758,0.028808594,0.4584961,0.123450115,-0.009578026,8.297763,0.025390625,-0.28027344,0.0068359375,0.95947266
17/07/11 05:04:37:677,3444,0.037353516,0.064941406,0.51123047,0.13941349,0.019156052,8.132809,0.025878906,-0.23339844,0.008300781,0.9716797
17/07/11 05:04:37:682,3449,0.037353516,0.064941406,0.51123047,0.13941349,0.019156052,8.132809,0.025878906,-0.23339844,0.008300781,0.9716797
17/07/11 05:04:37:687,3454,-0.2536621,0.05859375,0.52856445,0.12025744,-0.0031926753,7.915706,0.026855469,-0.1899414,0.009765625,0.98095703
17/07/11 05:04:37:693,3460,-0.2536621,0.05859375,0.52856445,0.12025744,-0.0031926753,7.915706,0.026855469,-0.1899414,0.009765625,0.98095703
17/07/11 05:04:37:698,3465,-0.38354492,0.1171875,0.5620117,0.08513801,-0.044697456,7.499594,0.028320313,-0.13623047,0.010253906,0.9902344
17/07/11 05:04:37:703,3470,-0.38354492,0.1171875,0.5620117,0.08513801,-0.044697456,7.499594,0.028320313,-0.13623047,0.010253906,0.9902344
17/07/11 05:04:37:708,3475,-0.25708008,0.053222656,0.6113281,0.029798303,-0.09578026,7.0792255,0.029785156,-0.091308594,0.011230469,0.9951172
17/07/11 05:04:37:714,3481,-0.25708008,0.060546875,0.62646484,0.029798303,-0.09578026,7.0792255,0.029785156,-0.091308594,0.011230469,0.9951172
17/07/11 05:04:37:719,3486,-0.36108398,0.060546875,0.62646484,0.029798303,-0.14579883,6.7929487,0.029785156,-0.048339844,0.01171875,0.9980469
17/07/11 05:04:37:724,3491,-0.25561523,0.04248047,0.65112305,0.022348728,-0.15005574,6.482195,0.030273438,-0.0063476563,0.012207031,0.9995117
17/07/11 05:04:37:729,3496,-0.25561523,0.04248047,0.65112305,0.022348728,-0.15005574,6.482195,0.030273438,-0.0063476563,0.012207031,0.9995117
17/07/11 05:04:37:735,3502,-0.25561523,0.04248047,0.65112305,0.022348728,-0.15005574,6.482195,0.030273438,-0.0063476563,0.012207031,0.9995117
17/07/11 05:04:37:740,3507,-0.25561523,0.04248047,0.65112305,0.022348728,-0.15005574,6.482195,0.030273438,-0.0063476563,0.012207031,0.9995117
17/07/11 05:04:37:745,3512,-0.25561523,0.04248047,0.65112305,0.022348728,-0.15005574,6.482195,0.030273438,-0.0063476563,0.012207031,0.9995117
17/07/11 05:04:37:750,3517,-0.25561523,0.04248047,0.65112305,0.022348728,-0.15005574,6.482195,0.030273438,-0.0063476563,0.012207031,0.9995117
17/07/11 05:04:37:755,3522,-0.25561523,0.04248047,0.65112305,0.022348728,-0.15005574,6.482195,0.030273438,-0.0063476563,0.012207031,0.9995117
17/07/11 05:04:37:760,3527,-0.2565918,-0.0087890625,0.6291504,0.0074495757,-0.15324841,6.340653,0.029785156,0.033691406,0.012207031,0.99902344
17/07/11 05:04:37:765,3532,-0.41308594,-0.04663086,0.6052246,-0.0021284502,-0.15005574,6.222524,0.02734375,0.104003906,0.0126953125,0.9941406
17/07/11 05:04:37:770,3537,-0.515625,-0.079833984,0.59643555,0.0063853506,-0.15111996,6.0916243,0.025878906,0.13867188,0.0126953125,0.9897461
17/07/11 05:04:37:775,3542,-0.66796875,-0.03149414,0.55981445,0.03192675,-0.18623939,5.9490185,0.022949219,0.17578125,0.012207031,0.9838867
17/07/11 05:04:37:780,3547,-0.66796875,-0.03149414,0.55981445,0.03192675,-0.18623939,5.9490185,0.022949219,0.17578125,0.012207031,0.9838867
17/07/11 05:04:37:785,3552,-0.66796875,-0.03149414,0.55981445,0.03192675,-0.18623939,5.9490185,0.022949219,0.17578125,0.012207031,0.9838867
17/07/11 05:04:37:790,3557,-0.66796875,-0.03149414,0.55981445,0.03192675,-0.18623939,5.9490185,0.022949219,0.17578125,0.012207031,0.9838867
17/07/11 05:04:37:795,3562,-0.66796875,-0.03149414,0.55981445,0.03192675,-0.18623939,5.9490185,0.022949219,0.17578125,0.012207031,0.9838867
17/07/11 05:04:37:800,3567,-0.66796875,-0.03149414,0.55981445,0.03192675,-0.18623939,5.9490185,0.022949219,0.17578125,0.012207031,0.9838867
17/07/11 05:04:37:805,3572,-0.66796875,-0.03149414,0.55981445,0.03192675,-0.18623939,5.9490185,0.022949219,0.17578125,0.012207031,0.9838867
17/07/11 05:04:37:810,3577,-0.92211914,-0.022216797,0.47338867,-0.0010642251,-0.22774418,5.1700053,0.021484375,0.21240234,0.01171875,0.9765625
17/07/11 05:04:37:815,3582,-1.229248,0.19213867,0.5788574,0.05853238,-0.3096895,4.4218554,0.017089844,0.3359375,0.0087890625,0.94140625
17/07/11 05:04:37:820,3587,-1.229248,0.19213867,0.5788574,0.05853238,-0.3096895,4.4218554,0.017089844,0.3359375,0.0087890625,0.94140625
17/07/11 05:04:37:825,3592,-1.3649902,0.09790039,0.58740234,-0.1436704,-0.2596709,3.570475,0.020019531,0.36914063,0.0087890625,0.9291992
17/07/11 05:04:37:830,3597,-1.3649902,0.09790039,0.58740234,-0.1436704,-0.2596709,3.570475,0.020019531,0.36914063,0.0087890625,0.9291992
17/07/11 05:04:37:836,3603,-1.3649902,0.09790039,0.58740234,-0.1436704,-0.2596709,3.570475,0.020019531,0.36914063,0.0087890625,0.9291992
17/07/11 05:04:37:842,3609,-1.3649902,0.09790039,0.58740234,-0.1436704,-0.2596709,3.570475,0.020019531,0.36914063,0.0087890625,0.9291992
17/07/11 05:04:37:847,3614,-1.3649902,0.09790039,0.58740234,-0.1436704,-0.2596709,3.570475,0.020019531,0.36914063,0.0087890625,0.9291992
17/07/11 05:04:37:852,3619,-1.3649902,0.09790039,0.58740234,-0.1436704,-0.2596709,3.570475,0.020019531,0.36914063,0.0087890625,0.9291992
17/07/11 05:04:37:857,3624,-1.2524414,-0.09375,0.4658203,-0.24370755,-0.15005574,2.5168924,0.020019531,0.36914063,0.0087890625,0.9291992
17/07/11 05:04:37:863,3630,-1.2114258,0.08886719,0.58813477,0.015963376,-0.055339705,0.9365181,0.015136719,0.42529297,0.0068359375,0.90478516
17/07/11 05:04:37:868,3635,-0.9055176,-0.037841797,0.5192871,-0.044697456,0.013834926,0.27244163,0.015136719,0.4350586,0.0068359375,0.89990234
17/07/11 05:04:37:873,3640,-0.9055176,-0.037841797,0.5192871,-0.044697456,0.013834926,0.27244163,0.015136719,0.4350586,0.0068359375,0.89990234
17/07/11 05:04:37:878,3645,-0.7404785,-0.017578125,0.7141113,0.061725058,0.0063853506,0.012770701,0.010253906,0.44677734,0.0043945313,0.89453125
17/07/11 05:04:37:884,3651,-0.8811035,-0.080322266,0.6611328,0.04363323,-0.026605628,-0.14792728,0.0073242188,0.43603516,0.0029296875,0.89990234
17/07/11 05:04:37:889,3656,-0.8811035,-0.080322266,0.6611328,0.04363323,-0.026605628,-0.14792728,0.0073242188,0.43603516,0.0029296875,0.89990234
17/07/11 05:04:37:894,3661,-1.1682129,0.27954102,0.99194336,0.13302813,0.08513801,-0.7130308,9.765625E-4,0.4375,0.0,0.8989258
17/07/11 05:04:37:899,3666,-1.1682129,0.27954102,0.99194336,0.13302813,0.08513801,-0.7130308,9.765625E-4,0.4375,0.0,0.8989258
17/07/11 05:04:37:904,3671,-1.1699219,0.036376953,0.5234375,-0.055339705,0.08726646,-1.3930707,0.029785156,0.42773438,0.013183594,0.9033203
17/07/11 05:04:37:909,3676,-1.1699219,0.036376953,0.5234375,-0.055339705,0.08726646,-1.3930707,0.029785156,0.42773438,0.013183594,0.9033203
17/07/11 05:04:37:914,3681,-1.1706543,-0.03564453,0.5612793,-0.10855096,0.1266428,-1.9709449,0.02734375,0.44482422,0.011230469,0.8955078
17/07/11 05:04:37:919,3686,-1.1706543,-0.03564453,0.5612793,-0.10855096,0.1266428,-1.9709449,0.02734375,0.44482422,0.011230469,0.8955078
17/07/11 05:04:37:924,3691,-1.130127,0.040771484,0.61450195,-0.059596606,0.0053211255,-2.5041215,0.026367188,0.43847656,0.011230469,0.8979492
17/07/11 05:04:37:929,3696,-1.130127,0.040771484,0.61450195,-0.059596606,0.0053211255,-2.5041215,0.026367188,0.43847656,0.011230469,0.8979492
17/07/11 05:04:37:934,3701,-1.130127,0.040771484,0.61450195,-0.059596606,0.0053211255,-2.5041215,0.026367188,0.43847656,0.011230469,0.8979492
17/07/11 05:04:37:939,3706,-1.130127,0.040771484,0.61450195,-0.059596606,0.0053211255,-2.5041215,0.026367188,0.43847656,0.011230469,0.8979492
17/07/11 05:04:37:945,3712,-1.130127,0.040771484,0.61450195,-0.059596606,0.0053211255,-2.5041215,0.026367188,0.43847656,0.011230469,0.8979492
17/07/11 05:04:37:951,3718,-1.130127,0.040771484,0.61450195,-0.059596606,0.0053211255,-2.5041215,0.026367188,0.43847656,0.011230469,0.8979492
17/07/11 05:04:37:956,3723,-1.130127,0.040771484,0.61450195,-0.059596606,0.0053211255,-2.5041215,0.026367188,0.43847656,0.011230469,0.8979492
17/07/11 05:04:37:961,3728,-1.0661621,0.11376953,0.6789551,-0.06278928,0.009578026,-3.233116,0.025390625,0.4326172,0.0107421875,0.9008789
17/07/11 05:04:37:966,3733,-1.1357422,-0.0036621094,0.5209961,-0.05853238,-0.015963376,-5.7574577,0.024414063,0.4008789,0.009277344,0.91552734
17/07/11 05:04:37:971,3738,-1.1357422,-0.0036621094,0.5209961,-0.05853238,-0.015963376,-5.7574577,0.024414063,0.4008789,0.009277344,0.91552734
17/07/11 05:04:37:976,3743,-0.8532715,0.03881836,0.44995117,-0.055339705,-0.03511943,-6.580104,0.0234375,0.38085938,0.0078125,0.9243164
17/07/11 05:04:37:981,3748,-0.8532715,0.03881836,0.44995117,-0.055339705,-0.03511943,-6.580104,0.0234375,0.38085938,0.0078125,0.9243164
17/07/11 05:04:37:986,3753,-0.703125,-0.01928711,0.41796875,-0.04576168,-0.061725058,-7.2069325,0.0234375,0.36279297,0.0068359375,0.9316406
17/07/11 05:04:37:992,3759,-0.703125,-0.01928711,0.41796875,-0.04576168,-0.061725058,-7.2069325,0.0234375,0.36279297,0.0068359375,0.9316406
17/07/11 05:04:37:997,3764,-0.703125,-0.01928711,0.41796875,-0.04576168,-0.061725058,-7.2069325,0.0234375,0.36279297,0.0068359375,0.9316406
17/07/11 05:04:38:002,3769,-0.703125,-0.01928711,0.41796875,-0.04576168,-0.061725058,-7.2069325,0.0234375,0.36279297,0.0068359375,0.9316406
17/07/11 05:04:38:008,3775,-0.703125,-0.01928711,0.41796875,-0.04576168,-0.061725058,-7.2069325,0.0234375,0.36279297,0.0068359375,0.9316406
17/07/11 05:04:38:013,3780,-0.703125,-0.01928711,0.41796875,-0.04576168,-0.061725058,-7.2069325,0.0234375,0.36279297,0.0068359375,0.9316406
17/07/11 05:04:38:018,3785,-0.3725586,0.072753906,0.4975586,-0.04576168,-0.06066083,-7.6336865,0.022460938,0.33544922,0.0053710938,0.94189453
17/07/11 05:04:38:023,3790,-0.34277344,0.05102539,0.47387695,-0.080881104,-0.012770701,-7.9965873,0.03564453,0.25732422,0.0078125,0.96533203
17/07/11 05:04:38:028,3795,-0.17041016,0.05834961,0.5031738,-0.079816885,-0.0010642251,-8.188148,0.036621094,0.22558594,0.0063476563,0.9736328
17/07/11 05:04:38:033,3800,-0.17041016,0.05834961,0.5031738,-0.079816885,-0.0010642251,-8.188148,0.036621094,0.22558594,0.0063476563,0.9736328
17/07/11 05:04:38:038,3805,-0.13598633,0.03540039,0.46923828,-0.07768843,0.0042569004,-8.320112,0.03857422,0.17822266,0.005859375,0.98291016
17/07/11 05:04:38:043,3810,-0.13598633,0.03540039,0.46923828,-0.07768843,0.0042569004,-8.320112,0.03857422,0.17822266,0.005859375,0.98291016
17/07/11 05:04:38:048,3815,-0.100097656,0.022705078,0.43969727,-0.07236731,0.019156052,-8.472296,0.038085938,0.13330078,0.0048828125,0.9902344
17/07/11 05:04:38:053,3820,-0.100097656,0.022705078,0.43969727,-0.07236731,0.019156052,-8.472296,0.038085938,0.13330078,0.0048828125,0.9902344
17/07/11 05:04:38:059,3826,-0.06567383,0.0043945313,0.4091797,-0.09365181,0.05214703,-8.677691,0.037109375,0.08935547,0.0034179688,0.9951172
17/07/11 05:04:38:064,3831,0.10864258,0.049316406,0.37939453,-0.08939491,0.032990977,-8.907564,0.03515625,0.045898438,0.001953125,0.9980469
17/07/11 05:04:38:069,3836,0.10864258,0.049316406,0.37939453,-0.08939491,0.032990977,-8.907564,0.03515625,0.045898438,0.001953125,0.9980469
17/07/11 05:04:38:074,3841,0.10864258,0.048339844,0.29418945,-0.08939491,0.032990977,-8.907564,0.03515625,0.045898438,0.001953125,0.9980469
17/07/11 05:04:38:080,3847,0.21728516,0.048339844,0.29418945,-0.109615184,-0.03511943,-9.144886,0.036132813,-0.0063476563,9.765625E-4,0.99902344
17/07/11 05:04:38:085,3852,0.25634766,-0.028808594,0.20581055,-0.14579883,-0.065981954,-9.375823,0.037109375,-0.059570313,0.0,0.9975586
17/07/11 05:04:38:091,3858,0.25634766,-0.028808594,0.20581055,-0.14579883,-0.065981954,-9.375823,0.037109375,-0.059570313,0.0,0.9975586
17/07/11 05:04:38:096,3863,0.48779297,0.020507813,0.25439453,-0.11493631,-0.05001858,-9.676999,0.03466797,-0.11425781,-9.765625E-4,0.9926758
17/07/11 05:04:38:102,3869,0.48779297,0.020507813,0.25439453,-0.11493631,-0.05001858,-9.676999,0.03466797,-0.11425781,-9.765625E-4,0.9926758
17/07/11 05:04:38:107,3874,0.79418945,0.043701172,0.15893555,-0.083009556,-0.11919321,-9.690834,0.034179688,-0.1772461,-0.0024414063,0.98339844
17/07/11 05:04:38:112,3879,0.79418945,0.043701172,0.15893555,-0.083009556,-0.11919321,-9.690834,0.034179688,-0.1772461,-0.0024414063,0.98339844
17/07/11 05:04:38:117,3884,0.84350586,0.1081543,0.15429688,-0.06917463,-0.06917463,-9.385401,0.034179688,-0.23925781,-0.00390625,0.97021484
17/07/11 05:04:38:122,3889,0.84350586,0.1081543,0.15429688,-0.06917463,-0.06917463,-9.385401,0.034179688,-0.23925781,-0.00390625,0.97021484
17/07/11 05:04:38:127,3894,0.95092773,-0.04711914,0.099853516,-0.10642251,-0.0074495757,-9.103381,0.034179688,-0.28759766,-0.005859375,0.95703125
17/07/11 05:04:38:133,3900,0.95092773,-0.04711914,0.099853516,-0.10642251,-0.0074495757,-9.103381,0.034179688,-0.28759766,-0.005859375,0.95703125
17/07/11 05:04:38:138,3905,1.1479492,-0.030273438,0.075683594,-0.03937633,0.036183655,-8.799013,0.032714844,-0.33789063,-0.0068359375,0.9404297
17/07/11 05:04:38:143,3910,1.1479492,-0.030273438,0.075683594,-0.03937633,0.036183655,-8.799013,0.032714844,-0.33789063,-0.0068359375,0.9404297
17/07/11 05:04:38:148,3915,1.0812988,-0.0061035156,0.07006836,-0.03192675,0.048954353,-8.32224,0.03173828,-0.3852539,-0.0073242188,0.9223633
17/07/11 05:04:38:154,3921,1.0812988,-0.0061035156,0.07006836,-0.03192675,0.048954353,-8.32224,0.03173828,-0.3852539,-0.0073242188,0.9223633
17/07/11 05:04:38:159,3926,1.0812988,-0.0061035156,0.07006836,-0.03192675,0.048954353,-8.32224,0.03173828,-0.3852539,-0.0073242188,0.9223633
17/07/11 05:04:38:164,3931,1.0812988,-0.0061035156,0.07006836,-0.03192675,0.048954353,-8.32224,0.03173828,-0.3852539,-0.0073242188,0.9223633
17/07/11 05:04:38:170,3937,1.0812988,-0.0061035156,0.07006836,-0.03192675,0.048954353,-8.32224,0.03173828,-0.3852539,-0.0073242188,0.9223633
17/07/11 05:04:38:175,3942,1.0812988,-0.0061035156,0.07006836,-0.03192675,0.048954353,-8.32224,0.03173828,-0.3852539,-0.0073242188,0.9223633
17/07/11 05:04:38:180,3947,1.1679688,-0.013427734,0.07470703,-0.038312104,0.057468154,-7.9082565,0.03125,-0.42626953,-0.008300781,0.9038086
17/07/11 05:04:38:185,3952,1.2822266,0.03881836,0.030761719,-0.026605628,0.051082805,-6.9802523,0.029785156,-0.5029297,-0.009277344,0.86376953
17/07/11 05:04:38:190,3957,1.2954102,0.045410156,-0.0073242188,-0.03937633,0.040440552,-6.4619746,0.028808594,-0.53515625,-0.009277344,0.8442383
17/07/11 05:04:38:196,3963,1.2697754,0.03173828,-0.016601563,-0.042569004,0.042569004,-5.953275,0.028320313,-0.56347656,-0.010253906,0.8251953
17/07/11 05:04:38:201,3968,1.2697754,0.03173828,-0.016601563,-0.042569004,0.042569004,-5.953275,0.028320313,-0.56347656,-0.010253906,0.8251953
17/07/11 05:04:38:206,3973,1.2697754,0.03173828,-0.016601563,-0.042569004,0.042569004,-5.953275,0.028320313,-0.56347656,-0.010253906,0.8251953
17/07/11 05:04:38:211,3978,1.2697754,0.03173828,-0.016601563,-0.042569004,0.042569004,-5.953275,0.028320313,-0.56347656,-0.010253906,0.8251953
17/07/11 05:04:38:216,3983,1.2697754,0.03173828,-0.016601563,-0.042569004,0.042569004,-5.953275,0.028320313,-0.56347656,-0.010253906,0.8251953
17/07/11 05:04:38:221,3988,1.2697754,0.03173828,-0.016601563,-0.042569004,0.042569004,-5.953275,0.028320313,-0.56347656,-0.010253906,0.8251953
17/07/11 05:04:38:226,3993,1.2697754,0.03173828,-0.016601563,-0.042569004,0.042569004,-5.953275,0.028320313,-0.56347656,-0.010253906,0.8251953
17/07/11 05:04:38:232,3999,1.3427734,0.021728516,-0.033203125,-0.041504778,0.042569004,-5.508429,0.027832031,-0.5888672,-0.010253906,0.8071289
17/07/11 05:04:38:237,4004,1.3427734,0.021728516,-0.033203125,-0.041504778,0.042569004,-5.508429,0.027832031,-0.5888672,-0.010253906,0.8071289
17/07/11 05:04:38:243,4010,1.5063477,-0.009033203,-0.018066406,-0.05001858,-0.0063853506,-4.3271394,0.025878906,-0.6352539,-0.0107421875,0.7714844
17/07/11 05:04:38:248,4015,1.5024414,0.009521484,-0.052246094,-0.028734077,-0.015963376,-3.105409,0.022949219,-0.67578125,-0.0087890625,0.7363281
17/07/11 05:04:38:253,4020,1.5024414,0.009521484,-0.052246094,-0.028734077,-0.015963376,-3.105409,0.022949219,-0.67578125,-0.0087890625,0.7363281
17/07/11 05:04:38:258,4025,1.4829102,0.026367188,-0.036865234,-0.041504778,-0.022348728,-2.3232033,0.022949219,-0.67578125,-0.0087890625,0.7363281
17/07/11 05:04:38:263,4030,1.4980469,-0.0078125,-0.038085938,-0.044697456,-0.028734077,-1.6091083,0.020019531,-0.6953125,-0.0063476563,0.7182617
17/07/11 05:04:38:268,4035,1.4980469,-0.0078125,-0.038085938,-0.044697456,-0.028734077,-1.6091083,0.01953125,-0.70458984,-0.0063476563,0.7089844
17/07/11 05:04:38:273,4040,1.4963379,0.010253906,-0.04248047,-0.037247878,-0.036183655,-0.865215,0.018554688,-0.7109375,-0.0053710938,0.7026367
17/07/11 05:04:38:278,4045,1.4963379,0.010253906,-0.04248047,-0.037247878,-0.036183655,-0.865215,0.018554688,-0.7109375,-0.0053710938,0.7026367
17/07/11 05:04:38:283,4050,1.4963379,0.010253906,-0.04248047,-0.037247878,-0.036183655,-0.865215,0.018554688,-0.7109375,-0.0053710938,0.7026367
17/07/11 05:04:38:288,4055,1.4963379,0.010253906,-0.04248047,-0.037247878,-0.036183655,-0.865215,0.018554688,-0.7109375,-0.0053710938,0.7026367
17/07/11 05:04:38:293,4060,1.1694336,0.04638672,-0.091796875,-0.036183655,-0.036183655,-0.11600053,0.018066406,-0.71435547,-0.0048828125,0.69921875
17/07/11 05:04:38:298,4065,1.4013672,0.014160156,-0.0087890625,-0.07662421,-0.06811041,0.17027602,0.019042969,-0.72265625,-0.005859375,0.69091797
17/07/11 05:04:38:303,4070,1.4013672,0.014160156,-0.0087890625,-0.07662421,-0.06811041,0.17027602,0.019042969,-0.72265625,-0.005859375,0.69091797
17/07/11 05:04:38:308,4075,1.4013672,0.014160156,-0.0087890625,-0.07662421,-0.06811041,0.17027602,0.019042969,-0.72265625,-0.005859375,0.69091797
17/07/11 05:04:38:314,4081,1.4013672,0.014160156,-0.0087890625,-0.07662421,-0.06811041,0.17027602,0.019042969,-0.72265625,-0.005859375,0.69091797
17/07/11 05:04:38:319,4086,1.4013672,0.014160156,-0.0087890625,-0.07662421,-0.06811041,0.17027602,0.019042969,-0.72265625,-0.005859375,0.69091797
17/07/11 05:04:38:324,4091,2.0637207,0.14038086,0.038085938,-0.1266428,-0.051082805,0.6406635,0.014160156,-0.71484375,-0.0014648438,0.69873047
17/07/11 05:04:38:330,4097,1.3786621,-0.07446289,-0.029296875,-0.041504778,-0.044697456,3.0000505,0.014160156,-0.7055664,-0.001953125,0.7084961
17/07/11 05:04:38:335,4102,1.6064453,0.01586914,-0.078125,-0.0042569004,-0.024477176,3.4917226,0.01171875,-0.6953125,4.8828125E-4,0.7182617
17/07/11 05:04:38:340,4107,1.6064453,0.01586914,-0.078125,-0.0042569004,-0.024477176,3.4917226,0.01171875,-0.6953125,4.8828125E-4,0.7182617
17/07/11 05:04:38:345,4112,1.6064453,0.01586914,-0.078125,-0.0042569004,-0.024477176,3.4917226,0.01171875,-0.6953125,4.8828125E-4,0.7182617
17/07/11 05:04:38:351,4118,1.6064453,0.01586914,-0.078125,-0.0042569004,-0.024477176,3.4917226,0.01171875,-0.6953125,4.8828125E-4,0.7182617
17/07/11 05:04:38:356,4123,1.6064453,0.01586914,-0.078125,-0.0042569004,-0.024477176,3.4917226,0.01171875,-0.6953125,4.8828125E-4,0.7182617
17/07/11 05:04:38:362,4129,1.6064453,0.01586914,-0.078125,-0.0042569004,-0.024477176,3.4917226,0.01171875,-0.6953125,4.8828125E-4,0.7182617
17/07/11 05:04:38:367,4134,1.4265137,-0.0021972656,-0.05493164,-0.012770701,-0.046825904,4.44314,0.011230469,-0.69140625,0.0014648438,0.72216797
17/07/11 05:04:38:372,4139,1.4265137,-0.0021972656,-0.05493164,-0.012770701,-0.046825904,4.44314,0.011230469,-0.69140625,0.0014648438,0.72216797
17/07/11 05:04:38:377,4144,1.2744141,0.021728516,-0.040039063,0.010642251,-0.10110138,6.504544,0.0107421875,-0.6455078,0.0029296875,0.7636719
17/07/11 05:04:38:382,4149,1.2744141,0.021728516,-0.040039063,0.010642251,-0.10110138,6.504544,0.0107421875,-0.6455078,0.0029296875,0.7636719
17/07/11 05:04:38:387,4154,1.234375,0.030761719,-0.0637207,0.009578026,-0.09045913,6.9610963,0.011230469,-0.625,0.0034179688,0.78027344
17/07/11 05:04:38:392,4159,1.234375,0.030761719,-0.0637207,0.009578026,-0.09045913,6.9610963,0.011230469,-0.625,0.0034179688,0.78027344
17/07/11 05:04:38:397,4164,1.3054199,0.01586914,0.0063476563,0.021284502,-0.083009556,7.417649,0.011230469,-0.5986328,0.0034179688,0.80078125
17/07/11 05:04:38:403,4170,1.3054199,0.01586914,0.0063476563,0.021284502,-0.083009556,7.417649,0.011230469,-0.5986328,0.0034179688,0.80078125
17/07/11 05:04:38:408,4175,1.3054199,0.01586914,0.0063476563,0.021284502,-0.083009556,7.417649,0.011230469,-0.5986328,0.0034179688,0.80078125
17/07/11 05:04:38:413,4180,1.3054199,0.01586914,0.0063476563,0.021284502,-0.083009556,7.417649,0.011230469,-0.5986328,0.0034179688,0.80078125
17/07/11 05:04:38:418,4185,1.3054199,0.01586914,0.0063476563,0.021284502,-0.083009556,7.417649,0.011230469,-0.5986328,0.0034179688,0.80078125
17/07/11 05:04:38:424,4191,1.3054199,0.01586914,0.0063476563,0.021284502,-0.083009556,7.417649,0.011230469,-0.5986328,0.0034179688,0.80078125
17/07/11 05:04:38:430,4197,1.1291504,-0.12768555,-0.008544922,0.05427548,-0.07555998,7.9721103,0.01171875,-0.57373047,0.00390625,0.81884766
17/07/11 05:04:38:434,4201,0.89453125,0.14624023,0.20288086,0.10642251,0.094716035,8.521251,0.013183594,-0.5263672,0.0053710938,0.85009766
17/07/11 05:04:38:439,4206,0.7104492,-0.020507813,0.15698242,0.0074495757,0.11067941,8.685141,0.016113281,-0.4946289,0.0053710938,0.86865234
17/07/11 05:04:38:445,4212,0.33740234,-0.0087890625,0.33935547,0.16389066,-0.07875266,8.744738,0.014160156,-0.46777344,0.0078125,0.88378906
17/07/11 05:04:38:450,4217,0.33740234,-0.0087890625,0.33935547,0.16389066,-0.07875266,8.744738,0.014160156,-0.46777344,0.0078125,0.88378906
17/07/11 05:04:38:455,4222,0.5019531,0.07348633,0.23388672,0.17134024,-0.13728504,8.465911,0.010253906,-0.40576172,0.0107421875,0.9135742
17/07/11 05:04:38:460,4227,0.5019531,0.07348633,0.23388672,0.17134024,-0.13728504,8.465911,0.010253906,-0.40576172,0.0107421875,0.9135742
17/07/11 05:04:38:465,4232,0.8083496,0.03540039,0.44970703,0.09684449,-0.14792728,8.275414,0.016113281,-0.37890625,0.009277344,0.92529297
17/07/11 05:04:38:470,4237,0.8083496,0.03540039,0.44970703,0.09684449,-0.14792728,8.275414,0.016113281,-0.37890625,0.009277344,0.92529297
17/07/11 05:04:38:475,4242,0.3947754,0.03100586,0.35473633,0.057468154,-0.11706476,8.358424,0.017089844,-0.35302734,0.009277344,0.9355469
17/07/11 05:04:38:480,4247,0.3947754,0.03100586,0.35473633,0.057468154,-0.11706476,8.358424,0.017089844,-0.35302734,0.009277344,0.9355469
17/07/11 05:04:38:485,4252,0.33935547,0.08618164,0.41357422,0.07343153,-0.097908705,8.321177,0.024414063,-0.3383789,0.0073242188,0.94091797
17/07/11 05:04:38:490,4257,0.33935547,0.08618164,0.41357422,0.07343153,-0.097908705,8.321177,0.024414063,-0.3383789,0.0073242188,0.94091797
17/07/11 05:04:38:495,4262,0.32421875,-0.045410156,0.45703125,0.06917463,-0.046825904,8.326497,0.028808594,-0.29833984,0.0073242188,0.9536133
17/07/11 05:04:38:500,4267,0.32421875,-0.045410156,0.45703125,0.06917463,-0.046825904,8.326497,0.028808594,-0.29833984,0.0073242188,0.9536133
17/07/11 05:04:38:505,4272,0.06323242,0.07836914,0.44677734,0.12025744,-0.04789013,8.314791,0.020996094,-0.25927734,0.0107421875,0.96533203
17/07/11 05:04:38:510,4277,0.06323242,0.07836914,0.44677734,0.12025744,-0.04789013,8.314791,0.020996094,-0.25927734,0.0107421875,0.96533203
17/07/11 05:04:38:515,4282,-0.1586914,0.02709961,0.47729492,0.09578026,-0.06491773,8.084918,0.025878906,-0.2055664,0.010253906,0.97802734
17/07/11 05:04:38:520,4287,-0.1586914,0.02709961,0.47729492,0.09578026,-0.06491773,8.084918,0.025878906,-0.2055664,0.010253906,0.97802734
17/07/11 05:04:38:525,4292,-0.2487793,-0.010986328,0.57470703,0.06917463,-0.083009556,7.659228,0.026367188,-0.1508789,0.011230469,0.98779297
17/07/11 05:04:38:530,4297,-0.2487793,-0.010986328,0.57470703,0.06917463,-0.083009556,7.659228,0.026367188,-0.1508789,0.011230469,0.98779297
17/07/11 05:04:38:535,4302,-0.31640625,0.040283203,0.5996094,0.06917463,-0.12983546,7.2175746,0.025878906,-0.10546875,0.012207031,0.99365234
17/07/11 05:04:38:540,4307,-0.31640625,0.040283203,0.5996094,0.06917463,-0.12983546,7.2175746,0.025878906,-0.10546875,0.012207031,0.99365234
17/07/11 05:04:38:545,4312,-0.28076172,0.0061035156,0.6386719,0.044697456,-0.14686306,6.817426,0.025878906,-0.06542969,0.012207031,0.9970703
17/07/11 05:04:38:550,4317,-0.28076172,0.0061035156,0.6386719,0.044697456,-0.14686306,6.817426,0.025878906,-0.06542969,0.012207031,0.9970703
17/07/11 05:04:38:555,4322,-0.40063477,-7.324219E-4,0.65112305,0.032990977,-0.1266428,6.5088005,0.025390625,-0.02734375,0.0126953125,0.99902344
17/07/11 05:04:38:560,4327,-0.40063477,-7.324219E-4,0.65112305,0.032990977,-0.1266428,6.5088005,0.025390625,-0.02734375,0.0126953125,0.99902344
17/07/11 05:04:38:565,4332,-0.40063477,-7.324219E-4,0.65112305,0.032990977,-0.1266428,6.5088005,0.025390625,-0.02734375,0.0126953125,0.99902344
17/07/11 05:04:38:570,4337,-0.40063477,-7.324219E-4,0.65112305,0.032990977,-0.1266428,6.5088005,0.025390625,-0.02734375,0.0126953125,0.99902344
17/07/11 05:04:38:575,4342,-0.40063477,-7.324219E-4,0.65112305,0.032990977,-0.1266428,6.5088005,0.025390625,-0.02734375,0.0126953125,0.99902344
17/07/11 05:04:38:580,4347,-0.40063477,-7.324219E-4,0.65112305,0.032990977,-0.1266428,6.5088005,0.025390625,-0.02734375,0.0126953125,0.99902344
17/07/11 05:04:38:586,4353,-0.40063477,-7.324219E-4,0.65112305,0.032990977,-0.1266428,6.5088005,0.025390625,-0.02734375,0.0126953125,0.99902344
17/07/11 05:04:38:590,4357,-0.4350586,0.020751953,0.65478516,0.036183655,-0.13196391,6.1756983,0.024902344,0.0126953125,0.013183594,0.9995117
17/07/11 05:04:38:595,4362,-0.6352539,0.018066406,0.6862793,0.0021284502,-0.15856954,5.2817492,0.023925781,0.111328125,0.013183594,0.99316406
17/07/11 05:04:38:601,4368,-0.6352539,0.018066406,0.6862793,0.0021284502,-0.15856954,5.2817492,0.023925781,0.111328125,0.013183594,0.99316406
17/07/11 05:04:38:606,4373,-0.5493164,0.036621094,0.6789551,0.013834926,-0.16282643,4.933748,0.0234375,0.14111328,0.013183594,0.9892578
17/07/11 05:04:38:611,4378,-0.5493164,0.036621094,0.6789551,0.013834926,-0.16282643,4.933748,0.0234375,0.14111328,0.013183594,0.9892578
17/07/11 05:04:38:617,4384,-0.5493164,0.036621094,0.6789551,0.013834926,-0.16282643,4.933748,0.0234375,0.14111328,0.013183594,0.9892578
17/07/11 05:04:38:622,4389,-0.5493164,0.036621094,0.6789551,0.013834926,-0.16282643,4.933748,0.0234375,0.14111328,0.013183594,0.9892578
17/07/11 05:04:38:627,4394,-0.5493164,0.036621094,0.6789551,0.013834926,-0.16282643,4.933748,0.0234375,0.14111328,0.013183594,0.9892578
17/07/11 05:04:38:632,4399,-0.5493164,0.036621094,0.6789551,0.013834926,-0.16282643,4.933748,0.0234375,0.14111328,0.013183594,0.9892578
17/07/11 05:04:38:637,4404,-0.59033203,0.05126953,0.67871094,0.015963376,-0.15963377,4.7251596,0.0234375,0.14111328,0.013183594,0.9892578
17/07/11 05:04:38:642,4409,-0.66918945,0.03466797,0.64868164,0.011706476,-0.15431264,4.3846073,0.022949219,0.21826172,0.0126953125,0.97509766
17/07/11 05:04:38:647,4414,-0.8383789,0.005126953,0.62402344,0.012770701,-0.15111996,4.18879,0.022949219,0.24316406,0.0126953125,0.9692383
17/07/11 05:04:38:652,4419,-0.8383789,0.005126953,0.62402344,0.012770701,-0.15111996,4.18879,0.022949219,0.24316406,0.0126953125,0.9692383
17/07/11 05:04:38:657,4424,-1.3439941,-0.048339844,0.57958984,-0.019156052,-0.12025744,3.7620358,0.021972656,0.2705078,0.012207031,0.96240234
17/07/11 05:04:38:662,4429,-1.3439941,-0.048339844,0.57958984,-0.019156052,-0.12025744,3.7620358,0.021972656,0.2705078,0.012207031,0.96240234
17/07/11 05:04:38:667,4434,-1.0568848,-0.001953125,0.63549805,-0.023412952,-0.14686306,3.2746205,0.018066406,0.3154297,0.010253906,0.94873047
17/07/11 05:04:38:672,4439,-1.4255371,0.044677734,0.57910156,-0.020220276,-0.06491773,2.6743977,0.016601563,0.34375,0.009277344,0.93896484
17/07/11 05:04:38:678,4445,-1.4255371,0.044677734,0.57910156,-0.020220276,-0.06491773,2.6743977,0.016601563,0.34375,0.009277344,0.93896484
17/07/11 05:04:38:683,4450,-1.2023926,0.016601563,0.6027832,-0.015963376,-0.071303084,1.6538059,0.016601563,0.34375,0.009277344,0.93896484
