global time,time(in ms),AccX,AccY,AccZ,GyroX,GyroY,GyroZ,QuatX,QuatY,QuatZ,QuatW
17/07/11 05:05:07:589,6,-0.7631836,0.026855469,0.5734863,-0.034055203,-0.044697456,0.0053211255,0.0146484375,0.4477539,0.0,0.89404297
17/07/11 05:05:07:594,11,-0.7631836,0.026855469,0.5734863,-0.034055203,-0.044697456,0.0053211255,0.0146484375,0.4477539,0.0,0.89404297
17/07/11 05:05:07:599,16,-0.7631836,0.026855469,0.5734863,-0.034055203,-0.044697456,0.0053211255,0.0146484375,0.4477539,0.0,0.89404297
17/07/11 05:05:07:604,21,-0.7631836,0.026855469,0.5734863,-0.034055203,-0.044697456,0.0053211255,0.0146484375,0.4477539,0.0,0.89404297
17/07/11 05:05:07:609,26,-0.76293945,0.022949219,0.5690918,-0.032990977,-0.044697456,0.0053211255,0.0146484375,0.44677734,0.0,0.89404297
17/07/11 05:05:07:617,34,-0.76220703,0.025634766,0.5710449,-0.034055203,-0.044697456,0.0063853506,0.014160156,0.44726563,0.0,0.89404297
17/07/11 05:05:07:623,40,-0.76220703,0.025634766,0.5710449,-0.034055203,-0.044697456,0.0063853506,0.014160156,0.44726563,0.0,0.89404297
17/07/11 05:05:07:629,46,-0.76220703,0.025634766,0.5710449,-0.034055203,-0.044697456,0.0063853506,0.014160156,0.44726563,0.0,0.89404297
17/07/11 05:05:07:635,52,-0.76220703,0.025634766,0.5710449,-0.034055203,-0.044697456,0.0063853506,0.014160156,0.44726563,0.0,0.89404297
17/07/11 05:05:07:640,57,-0.76220703,0.025634766,0.5710449,-0.034055203,-0.044697456,0.0063853506,0.014160156,0.44726563,0.0,0.89404297
17/07/11 05:05:07:645,62,-0.76171875,0.02319336,0.57421875,-0.03511943,-0.04576168,0.0063853506,0.0146484375,0.44726563,0.0,0.89404297
17/07/11 05:05:07:656,73,-0.7648926,0.02368164,0.57177734,-0.034055203,-0.04576168,0.0053211255,0.0146484375,0.44677734,0.0,0.89453125
17/07/11 05:05:07:662,79,-0.7644043,0.024902344,0.57006836,-0.034055203,-0.044697456,0.0053211255,0.0146484375,0.44677734,0.0,0.89453125
17/07/11 05:05:07:668,85,-0.76464844,0.025146484,0.5722656,-0.034055203,-0.04576168,0.0042569004,0.014160156,0.4477539,0.0,0.89404297
17/07/11 05:05:07:692,109,-0.7609863,0.025146484,0.5749512,-0.034055203,-0.044697456,0.0053211255,0.0146484375,0.44726563,0.0,0.89404297
17/07/11 05:05:07:697,114,-0.7609863,0.025146484,0.5749512,-0.034055203,-0.044697456,0.0053211255,0.0146484375,0.44677734,0.0,0.89453125
17/07/11 05:05:07:703,120,-0.76123047,0.028076172,0.5715332,-0.034055203,-0.04576168,0.0074495757,0.0146484375,0.44677734,0.0,0.89453125
17/07/11 05:05:07:709,126,-0.76123047,0.028076172,0.5715332,-0.034055203,-0.04576168,0.0074495757,0.0146484375,0.44628906,0.0,0.89453125
17/07/11 05:05:07:715,132,-0.76538086,0.025878906,0.56884766,-0.034055203,-0.044697456,0.0063853506,0.015136719,0.44628906,4.8828125E-4,0.89453125
17/07/11 05:05:07:723,140,-0.76538086,0.025878906,0.56884766,-0.034055203,-0.044697456,0.0063853506,0.015136719,0.44628906,4.8828125E-4,0.89453125
17/07/11 05:05:07:728,145,-0.76538086,0.025878906,0.56884766,-0.034055203,-0.044697456,0.0063853506,0.014160156,0.44628906,0.0,0.89453125
17/07/11 05:05:07:733,150,-0.75878906,0.023925781,0.5708008,-0.034055203,-0.044697456,0.0053211255,0.0146484375,0.44726563,0.0,0.89404297
17/07/11 05:05:07:738,155,-0.75878906,0.023925781,0.5708008,-0.034055203,-0.044697456,0.0053211255,0.0146484375,0.44726563,0.0,0.89404297
17/07/11 05:05:07:743,160,-0.75878906,0.023925781,0.5708008,-0.034055203,-0.044697456,0.0053211255,0.0146484375,0.44726563,0.0,0.89404297
17/07/11 05:05:07:750,167,-0.75878906,0.023925781,0.5708008,-0.034055203,-0.044697456,0.0053211255,0.0146484375,0.44726563,0.0,0.89404297
17/07/11 05:05:07:755,172,-0.75878906,0.023925781,0.5708008,-0.034055203,-0.044697456,0.0053211255,0.0146484375,0.44726563,0.0,0.89404297
17/07/11 05:05:07:760,177,-0.75878906,0.023925781,0.5708008,-0.034055203,-0.044697456,0.0053211255,0.0146484375,0.44726563,0.0,0.89404297
17/07/11 05:05:07:766,183,-0.7614746,0.024169922,0.5710449,-0.034055203,-0.04363323,0.0053211255,0.014160156,0.44628906,0.0,0.89453125
17/07/11 05:05:07:771,188,-0.7614746,0.024169922,0.5710449,-0.034055203,-0.04363323,0.0053211255,0.014160156,0.44628906,0.0,0.89453125
17/07/11 05:05:07:776,193,-0.76416016,0.021728516,0.5734863,-0.032990977,-0.044697456,0.0053211255,0.013671875,0.44726563,0.0,0.89404297
17/07/11 05:05:07:781,198,-0.76416016,0.021728516,0.5734863,-0.032990977,-0.044697456,0.0053211255,0.013671875,0.44726563,0.0,0.89404297
17/07/11 05:05:07:786,203,-0.7597656,0.025634766,0.5720215,-0.034055203,-0.044697456,0.0053211255,0.013183594,0.44677734,0.0,0.89404297
17/07/11 05:05:07:791,208,-0.7597656,0.025634766,0.5720215,-0.034055203,-0.044697456,0.0053211255,0.013183594,0.44677734,0.0,0.89404297
17/07/11 05:05:07:796,213,-0.76293945,0.024169922,0.5727539,-0.032990977,-0.04576168,0.0074495757,0.013671875,0.44628906,0.0,0.89453125
17/07/11 05:05:07:801,218,-0.76293945,0.024169922,0.5727539,-0.032990977,-0.04576168,0.0074495757,0.013671875,0.44628906,0.0,0.89453125
17/07/11 05:05:07:806,223,-0.7631836,0.025146484,0.5703125,-0.034055203,-0.04576168,0.0042569004,0.014160156,0.44677734,0.0,0.89404297
17/07/11 05:05:07:811,228,-0.7631836,0.025146484,0.5703125,-0.034055203,-0.04576168,0.0042569004,0.014160156,0.44677734,0.0,0.89404297
17/07/11 05:05:07:817,234,-0.76293945,0.026123047,0.5732422,-0.034055203,-0.04576168,0.0053211255,0.014160156,0.44726563,0.0,0.89404297
17/07/11 05:05:07:822,239,-0.7644043,0.025146484,0.56884766,-0.03511943,-0.044697456,0.0053211255,0.0146484375,0.44677734,0.0,0.89404297
17/07/11 05:05:07:827,244,-0.7644043,0.025146484,0.56884766,-0.03511943,-0.044697456,0.0053211255,0.0146484375,0.44677734,0.0,0.89404297
17/07/11 05:05:07:832,249,-0.76000977,0.024658203,0.5739746,-0.03511943,-0.04576168,0.0053211255,0.0146484375,0.44726563,0.0,0.89404297
17/07/11 05:05:07:837,254,-0.76000977,0.024658203,0.5739746,-0.03511943,-0.04576168,0.0053211255,0.0146484375,0.44726563,0.0,0.89404297
17/07/11 05:05:07:842,259,-0.76000977,0.024658203,0.5739746,-0.03511943,-0.04576168,0.0053211255,0.0146484375,0.44726563,0.0,0.89404297
17/07/11 05:05:07:847,264,-0.7578125,0.025146484,0.57373047,-0.034055203,-0.04363323,0.0063853506,0.0146484375,0.44677734,0.0,0.89404297
17/07/11 05:05:07:852,269,-0.76342773,0.025634766,0.57128906,-0.034055203,-0.044697456,0.0053211255,0.0146484375,0.44677734,0.0,0.89404297
17/07/11 05:05:07:857,274,-0.76342773,0.025634766,0.57128906,-0.034055203,-0.044697456,0.0053211255,0.0146484375,0.44628906,0.0,0.89453125
17/07/11 05:05:07:862,279,-0.7644043,0.025390625,0.5715332,-0.034055203,-0.04576168,0.0063853506,0.0146484375,0.44628906,0.0,0.89453125
17/07/11 05:05:07:867,284,-0.7644043,0.025390625,0.5715332,-0.034055203,-0.04576168,0.0063853506,0.0146484375,0.44677734,0.0,0.89404297
17/07/11 05:05:07:872,289,-0.7644043,0.025390625,0.5715332,-0.034055203,-0.04576168,0.0063853506,0.0146484375,0.44677734,0.0,0.89404297
17/07/11 05:05:07:877,294,-0.7661133,0.026611328,0.57006836,-0.034055203,-0.04576168,0.0074495757,0.0146484375,0.44726563,0.0,0.89404297
17/07/11 05:05:07:882,299,-0.7609863,0.026855469,0.5744629,-0.034055203,-0.04576168,0.0053211255,0.0146484375,0.4477539,0.0,0.8935547
17/07/11 05:05:07:887,304,-0.7609863,0.026855469,0.5744629,-0.034055203,-0.04576168,0.0053211255,0.0146484375,0.4477539,0.0,0.8935547
17/07/11 05:05:07:892,309,-0.7602539,0.023925781,0.57128906,-0.034055203,-0.044697456,0.0053211255,0.0146484375,0.44726563,0.0,0.89404297
17/07/11 05:05:07:897,314,-0.7602539,0.023925781,0.57128906,-0.034055203,-0.044697456,0.0053211255,0.0146484375,0.44726563,0.0,0.89404297
17/07/11 05:05:07:903,320,-0.7636719,0.025634766,0.57373047,-0.034055203,-0.044697456,0.0063853506,0.014160156,0.44677734,0.0,0.89404297
17/07/11 05:05:07:909,326,-0.7636719,0.025634766,0.57373047,-0.034055203,-0.044697456,0.0063853506,0.014160156,0.44677734,0.0,0.89404297
17/07/11 05:05:07:914,331,-0.76293945,0.026367188,0.57373047,-0.034055203,-0.04576168,0.0063853506,0.0146484375,0.44628906,0.0,0.89453125
17/07/11 05:05:07:921,338,-0.76293945,0.026367188,0.57373047,-0.034055203,-0.04576168,0.0063853506,0.0146484375,0.44628906,0.0,0.89453125
17/07/11 05:05:07:926,343,-0.76416016,0.025878906,0.5678711,-0.034055203,-0.044697456,0.0042569004,0.015136719,0.44628906,4.8828125E-4,0.89453125
17/07/11 05:05:07:931,348,-0.76416016,0.025878906,0.5678711,-0.034055203,-0.044697456,0.0042569004,0.015136719,0.44628906,4.8828125E-4,0.89453125
17/07/11 05:05:07:936,353,-0.76220703,0.024169922,0.5744629,-0.03511943,-0.04576168,0.0042569004,0.015136719,0.44677734,4.8828125E-4,0.89453125
17/07/11 05:05:07:941,358,-0.76220703,0.024169922,0.5744629,-0.03511943,-0.04576168,0.0042569004,0.015136719,0.44677734,4.8828125E-4,0.89453125
17/07/11 05:05:07:946,363,-0.76220703,0.024169922,0.5744629,-0.03511943,-0.04576168,0.0042569004,0.015136719,0.44677734,4.8828125E-4,0.89453125
17/07/11 05:05:07:951,368,-0.76220703,0.024169922,0.5744629,-0.03511943,-0.04576168,0.0042569004,0.015136719,0.44677734,4.8828125E-4,0.89453125
17/07/11 05:05:07:957,374,-0.76220703,0.024169922,0.5744629,-0.03511943,-0.04576168,0.0042569004,0.015136719,0.44677734,4.8828125E-4,0.89453125
17/07/11 05:05:07:962,379,-0.76220703,0.024169922,0.5744629,-0.03511943,-0.04576168,0.0042569004,0.015136719,0.44677734,4.8828125E-4,0.89453125
17/07/11 05:05:07:967,384,-0.76123047,0.025390625,0.5739746,-0.032990977,-0.044697456,0.0063853506,0.0146484375,0.44628906,0.0,0.89453125
17/07/11 05:05:07:972,389,-0.76123047,0.025390625,0.5739746,-0.032990977,-0.044697456,0.0063853506,0.0146484375,0.44677734,0.0,0.89453125
17/07/11 05:05:07:984,401,-0.76293945,0.022705078,0.5749512,-0.032990977,-0.04363323,0.0053211255,0.014160156,0.44628906,0.0,0.89453125
17/07/11 05:05:07:989,406,-0.76293945,0.022705078,0.5749512,-0.032990977,-0.04363323,0.0053211255,0.014160156,0.44628906,0.0,0.89453125
17/07/11 05:05:07:994,411,-0.76293945,0.022705078,0.5749512,-0.032990977,-0.04363323,0.0053211255,0.014160156,0.44628906,0.0,0.89453125
17/07/11 05:05:07:999,416,-0.76293945,0.022705078,0.5749512,-0.032990977,-0.04363323,0.0053211255,0.014160156,0.44628906,0.0,0.89453125
17/07/11 05:05:08:004,421,-0.76293945,0.022705078,0.5749512,-0.032990977,-0.04363323,0.0053211255,0.014160156,0.44628906,0.0,0.89453125
17/07/11 05:05:08:009,426,-0.76293945,0.022705078,0.5749512,-0.032990977,-0.04363323,0.0053211255,0.014160156,0.44628906,0.0,0.89453125
17/07/11 05:05:08:014,431,-0.76293945,0.022705078,0.5749512,-0.032990977,-0.04363323,0.0053211255,0.014160156,0.44628906,0.0,0.89453125
17/07/11 05:05:08:019,436,-0.7607422,0.022705078,0.5756836,-0.032990977,-0.04363323,0.0063853506,0.013671875,0.44580078,0.0,0.89453125
17/07/11 05:05:08:024,441,-0.7668457,0.026611328,0.5695801,-0.03511943,-0.044697456,0.0063853506,0.014160156,0.44580078,0.0,0.89453125
17/07/11 05:05:08:029,446,-0.7668457,0.026611328,0.5695801,-0.03511943,-0.044697456,0.0063853506,0.014160156,0.44580078,0.0,0.89453125
17/07/11 05:05:08:034,451,-0.7668457,0.026611328,0.5695801,-0.03511943,-0.044697456,0.0063853506,0.014160156,0.44580078,0.0,0.89453125
17/07/11 05:05:08:040,457,-0.7668457,0.026611328,0.5695801,-0.03511943,-0.044697456,0.0063853506,0.014160156,0.44580078,0.0,0.89453125
17/07/11 05:05:08:045,462,-0.7668457,0.026611328,0.5695801,-0.03511943,-0.044697456,0.0063853506,0.014160156,0.44580078,0.0,0.89453125
17/07/11 05:05:08:050,467,-0.7668457,0.026611328,0.5695801,-0.03511943,-0.044697456,0.0063853506,0.014160156,0.44580078,0.0,0.89453125
17/07/11 05:05:08:055,472,-0.7668457,0.026611328,0.5695801,-0.03511943,-0.044697456,0.0063853506,0.014160156,0.44580078,0.0,0.89453125
17/07/11 05:05:08:060,477,-0.7636719,0.022705078,0.56884766,-0.034055203,-0.04363323,0.0053211255,0.014160156,0.44677734,0.0,0.89453125
17/07/11 05:05:08:065,482,-0.76464844,0.024902344,0.57128906,-0.034055203,-0.044697456,0.0042569004,0.013671875,0.44580078,0.0,0.89453125
17/07/11 05:05:08:071,488,-0.76464844,0.024902344,0.57128906,-0.034055203,-0.044697456,0.0042569004,0.013671875,0.44580078,0.0,0.89453125
17/07/11 05:05:08:076,493,-0.76416016,0.025390625,0.57006836,-0.036183655,-0.044697456,0.0053211255,0.014160156,0.44628906,0.0,0.89453125
17/07/11 05:05:08:081,498,-0.76416016,0.023925781,0.5686035,-0.036183655,-0.044697456,0.0053211255,0.014160156,0.44628906,0.0,0.89453125
17/07/11 05:05:08:086,503,-0.7590332,0.023925781,0.5686035,-0.034055203,-0.044697456,0.0053211255,0.014160156,0.44677734,0.0,0.89404297
17/07/11 05:05:08:091,508,-0.76342773,0.024902344,0.5739746,-0.034055203,-0.044697456,0.0063853506,0.014160156,0.44677734,0.0,0.89404297
17/07/11 05:05:08:096,513,-0.76342773,0.024902344,0.5739746,-0.034055203,-0.044697456,0.0063853506,0.013671875,0.44726563,0.0,0.89404297
17/07/11 05:05:08:101,518,-0.7624512,0.026611328,0.5744629,-0.034055203,-0.044697456,0.0042569004,0.013671875,0.44726563,0.0,0.89404297
17/07/11 05:05:08:107,524,-0.7624512,0.026611328,0.5744629,-0.034055203,-0.044697456,0.0042569004,0.013671875,0.44677734,0.0,0.89453125
17/07/11 05:05:08:112,529,-0.76586914,0.026367188,0.5715332,-0.03511943,-0.044697456,0.0053211255,0.013671875,0.44677734,0.0,0.89453125
17/07/11 05:05:08:117,534,-0.76586914,0.026367188,0.5715332,-0.03511943,-0.044697456,0.0053211255,0.0146484375,0.44628906,0.0,0.89453125
17/07/11 05:05:08:122,539,-0.765625,0.028320313,0.5720215,-0.034055203,-0.04363323,0.0053211255,0.0146484375,0.44628906,0.0,0.89453125
17/07/11 05:05:08:128,545,-0.765625,0.028320313,0.5720215,-0.034055203,-0.04363323,0.0053211255,0.0146484375,0.44677734,0.0,0.89404297
17/07/11 05:05:08:133,550,-0.76220703,0.02319336,0.57470703,-0.034055203,-0.044697456,0.0053211255,0.0146484375,0.44677734,0.0,0.89404297
17/07/11 05:05:08:138,555,-0.76220703,0.02319336,0.57470703,-0.034055203,-0.044697456,0.0053211255,0.015136719,0.44726563,4.8828125E-4,0.89404297
17/07/11 05:05:08:143,560,-0.7590332,0.025146484,0.57299805,-0.034055203,-0.04576168,0.0031926753,0.0146484375,0.44677734,0.0,0.89453125
17/07/11 05:05:08:148,565,-0.7590332,0.025146484,0.57299805,-0.034055203,-0.04576168,0.0031926753,0.0146484375,0.44677734,0.0,0.89453125
17/07/11 05:05:08:153,570,-0.76220703,0.025146484,0.5732422,-0.034055203,-0.04576168,0.0053211255,0.0146484375,0.44628906,0.0,0.89453125
17/07/11 05:05:08:158,575,-0.76220703,0.025146484,0.5732422,-0.034055203,-0.04576168,0.0053211255,0.0146484375,0.44628906,0.0,0.89453125
17/07/11 05:05:08:163,580,-0.76220703,0.025146484,0.5732422,-0.034055203,-0.04576168,0.0053211255,0.0146484375,0.44628906,0.0,0.89453125
17/07/11 05:05:08:169,586,-0.76220703,0.025146484,0.5732422,-0.034055203,-0.04576168,0.0053211255,0.0146484375,0.44628906,0.0,0.89453125
17/07/11 05:05:08:174,591,-0.76220703,0.025146484,0.5732422,-0.034055203,-0.04576168,0.0053211255,0.0146484375,0.44628906,0.0,0.89453125
17/07/11 05:05:08:181,598,-0.76220703,0.025146484,0.5732422,-0.034055203,-0.04576168,0.0053211255,0.0146484375,0.44628906,0.0,0.89453125
17/07/11 05:05:08:186,603,-0.763916,0.025390625,0.5708008,-0.032990977,-0.044697456,0.0053211255,0.013671875,0.44628906,0.0,0.89453125
17/07/11 05:05:08:191,608,-0.7626953,0.026611328,0.5708008,-0.032990977,-0.044697456,0.0063853506,0.014160156,0.44677734,0.0,0.89404297
17/07/11 05:05:08:196,613,-0.7631836,0.026855469,0.5698242,-0.034055203,-0.04576168,0.0063853506,0.014160156,0.44726563,0.0,0.89404297
17/07/11 05:05:08:201,618,-0.7631836,0.026855469,0.5698242,-0.034055203,-0.04576168,0.0063853506,0.014160156,0.44726563,0.0,0.89404297
17/07/11 05:05:08:206,623,-0.7573242,0.026123047,0.5683594,-0.034055203,-0.04576168,0.0053211255,0.0146484375,0.4477539,0.0,0.89404297
17/07/11 05:05:08:211,628,-0.7573242,0.026123047,0.5683594,-0.034055203,-0.04576168,0.0053211255,0.0146484375,0.4477539,0.0,0.89404297
17/07/11 05:05:08:216,633,-0.7636719,0.026367188,0.5673828,-0.032990977,-0.04576168,0.0074495757,0.0146484375,0.44677734,0.0,0.89404297
17/07/11 05:05:08:221,638,-0.7636719,0.026367188,0.5673828,-0.032990977,-0.04576168,0.0074495757,0.0146484375,0.44677734,0.0,0.89404297
17/07/11 05:05:08:226,643,-0.7651367,0.026123047,0.5710449,-0.032990977,-0.044697456,0.0053211255,0.015136719,0.4477539,0.0,0.89404297
17/07/11 05:05:08:231,648,-0.7651367,0.026123047,0.5710449,-0.032990977,-0.044697456,0.0053211255,0.015136719,0.4477539,0.0,0.89404297
17/07/11 05:05:08:236,653,-0.76586914,0.024658203,0.5715332,-0.032990977,-0.044697456,0.0053211255,0.0146484375,0.4482422,0.0,0.8935547
17/07/11 05:05:08:241,658,-0.76586914,0.024658203,0.5715332,-0.032990977,-0.044697456,0.0053211255,0.0146484375,0.4482422,0.0,0.8935547
17/07/11 05:05:08:246,663,-0.7609863,0.026611328,0.5708008,-0.034055203,-0.044697456,0.0042569004,0.014160156,0.4477539,0.0,0.8935547
17/07/11 05:05:08:252,669,-0.7609863,0.026367188,0.5722656,-0.034055203,-0.044697456,0.0042569004,0.014160156,0.4477539,0.0,0.8935547
17/07/11 05:05:08:257,674,-0.76123047,0.026367188,0.5722656,-0.03511943,-0.04576168,0.0063853506,0.0146484375,0.44726563,0.0,0.89404297
17/07/11 05:05:08:263,680,-0.7619629,0.024902344,0.5732422,-0.032990977,-0.04576168,0.0053211255,0.0146484375,0.44677734,0.0,0.89404297
17/07/11 05:05:08:268,685,-0.7619629,0.024902344,0.5732422,-0.032990977,-0.04576168,0.0053211255,0.0146484375,0.44677734,0.0,0.89404297
17/07/11 05:05:08:273,690,-0.75878906,0.024414063,0.5732422,-0.032990977,-0.044697456,0.0042569004,0.014160156,0.44628906,0.0,0.89453125
17/07/11 05:05:08:278,695,-0.75878906,0.024414063,0.5732422,-0.032990977,-0.044697456,0.0042569004,0.014160156,0.44628906,0.0,0.89453125
17/07/11 05:05:08:283,700,-0.7495117,0.021484375,0.5695801,-0.032990977,-0.044697456,0.0053211255,0.014160156,0.44580078,0.0,0.89501953
17/07/11 05:05:08:288,705,-0.7495117,0.021484375,0.5695801,-0.032990977,-0.044697456,0.0053211255,0.014160156,0.44580078,0.0,0.89501953
17/07/11 05:05:08:293,710,-0.7512207,0.020263672,0.5749512,-0.034055203,-0.044697456,0.0063853506,0.013671875,0.4453125,0.0,0.89501953
17/07/11 05:05:08:298,715,-0.7512207,0.020263672,0.5749512,-0.034055203,-0.044697456,0.0063853506,0.013671875,0.4453125,0.0,0.89501953
17/07/11 05:05:08:303,720,-0.76123047,0.029052734,0.5773926,-0.032990977,-0.046825904,0.0063853506,0.013671875,0.44482422,0.0,0.8955078
17/07/11 05:05:08:308,725,-0.76123047,0.029052734,0.5773926,-0.032990977,-0.046825904,0.0063853506,0.013671875,0.44482422,0.0,0.8955078
17/07/11 05:05:08:313,730,-0.765625,0.025634766,0.57836914,-0.034055203,-0.04576168,0.0053211255,0.014160156,0.44482422,0.0,0.8955078
17/07/11 05:05:08:318,735,-0.765625,0.025634766,0.57836914,-0.034055203,-0.04576168,0.0053211255,0.014160156,0.44482422,0.0,0.8955078
17/07/11 05:05:08:323,740,-0.75512695,0.024169922,0.57299805,-0.03511943,-0.044697456,0.0053211255,0.0146484375,0.4453125,0.0,0.89501953
17/07/11 05:05:08:328,745,-0.75512695,0.024169922,0.57299805,-0.03511943,-0.044697456,0.0053211255,0.0146484375,0.4453125,0.0,0.89501953
17/07/11 05:05:08:333,750,-0.75805664,0.018310547,0.5698242,-0.034055203,-0.046825904,0.0053211255,0.014160156,0.44482422,0.0,0.8955078
17/07/11 05:05:08:338,755,-0.75805664,0.018310547,0.5698242,-0.034055203,-0.046825904,0.0053211255,0.014160156,0.44482422,0.0,0.8955078
17/07/11 05:05:08:344,761,-0.7680664,0.023925781,0.57055664,-0.034055203,-0.04576168,0.0063853506,0.013671875,0.44482422,0.0,0.89501953
17/07/11 05:05:08:349,766,-0.7680664,0.023925781,0.57055664,-0.034055203,-0.04576168,0.0063853506,0.013671875,0.44482422,0.0,0.89501953
17/07/11 05:05:08:354,771,-0.7680664,0.023925781,0.57055664,-0.034055203,-0.04576168,0.0063853506,0.013671875,0.44482422,0.0,0.89501953
17/07/11 05:05:08:359,776,-0.7680664,0.023925781,0.57055664,-0.034055203,-0.04576168,0.0063853506,0.013671875,0.44482422,0.0,0.89501953
17/07/11 05:05:08:364,781,-0.7680664,0.023925781,0.57055664,-0.034055203,-0.04576168,0.0063853506,0.013671875,0.44482422,0.0,0.89501953
17/07/11 05:05:08:369,786,-0.7680664,0.023925781,0.57055664,-0.034055203,-0.04576168,0.0063853506,0.013671875,0.44482422,0.0,0.89501953
17/07/11 05:05:08:374,791,-0.7680664,0.023925781,0.57055664,-0.034055203,-0.04576168,0.0063853506,0.013671875,0.44482422,0.0,0.89501953
17/07/11 05:05:08:380,797,-0.7626953,0.024169922,0.5739746,-0.034055203,-0.04576168,0.0042569004,0.013671875,0.44580078,0.0,0.89501953
17/07/11 05:05:08:385,802,-0.76904297,0.026123047,0.56933594,-0.034055203,-0.04363323,0.0074495757,0.013671875,0.44628906,0.0,0.89453125
17/07/11 05:05:08:390,807,-0.76904297,0.026123047,0.56933594,-0.034055203,-0.04363323,0.0074495757,0.013671875,0.44628906,0.0,0.89453125
17/07/11 05:05:08:395,812,-0.7631836,0.0234375,0.57373047,-0.034055203,-0.04363323,0.0042569004,0.014160156,0.44677734,0.0,0.89453125
17/07/11 05:05:08:401,818,-0.7631836,0.0234375,0.57373047,-0.034055203,-0.04363323,0.0042569004,0.014160156,0.44677734,0.0,0.89453125
17/07/11 05:05:08:406,823,-0.7631836,0.0234375,0.57373047,-0.034055203,-0.04363323,0.0042569004,0.014160156,0.44677734,0.0,0.89453125
17/07/11 05:05:08:411,828,-0.7631836,0.0234375,0.57373047,-0.034055203,-0.04363323,0.0042569004,0.014160156,0.44677734,0.0,0.89453125
17/07/11 05:05:08:416,833,-0.7631836,0.0234375,0.57373047,-0.034055203,-0.04363323,0.0042569004,0.014160156,0.44677734,0.0,0.89453125
17/07/11 05:05:08:421,838,-0.7631836,0.0234375,0.57373047,-0.034055203,-0.04363323,0.0042569004,0.014160156,0.44677734,0.0,0.89453125
17/07/11 05:05:08:426,843,-0.7607422,0.024658203,0.57592773,-0.032990977,-0.04576168,0.0053211255,0.013671875,0.44628906,0.0,0.89453125
17/07/11 05:05:08:431,848,-0.76123047,0.022949219,0.5703125,-0.032990977,-0.04576168,0.0053211255,0.014160156,0.44628906,0.0,0.89453125
17/07/11 05:05:08:436,853,-0.76464844,0.023925781,0.56591797,-0.032990977,-0.044697456,0.0074495757,0.013671875,0.44677734,0.0,0.89453125
17/07/11 05:05:08:442,859,-0.76464844,0.023925781,0.56591797,-0.032990977,-0.044697456,0.0074495757,0.013671875,0.44677734,0.0,0.89453125
17/07/11 05:05:08:448,865,-0.76464844,0.023925781,0.56591797,-0.032990977,-0.044697456,0.0074495757,0.013671875,0.44677734,0.0,0.89453125
17/07/11 05:05:08:461,878,-0.76464844,0.023925781,0.56591797,-0.032990977,-0.044697456,0.0074495757,0.013671875,0.44677734,0.0,0.89453125
17/07/11 05:05:08:466,883,-0.7595215,0.02368164,0.5710449,-0.032990977,-0.044697456,0.0042569004,0.013671875,0.44726563,0.0,0.89404297
17/07/11 05:05:08:471,888,-0.7663574,0.025634766,0.56933594,-0.032990977,-0.04576168,0.0053211255,0.014160156,0.44726563,0.0,0.89404297
17/07/11 05:05:08:476,893,-0.76000977,0.024414063,0.5708008,-0.034055203,-0.04576168,0.0053211255,0.014160156,0.4477539,0.0,0.89404297
17/07/11 05:05:08:481,898,-0.76000977,0.024414063,0.5708008,-0.034055203,-0.04576168,0.0053211255,0.014160156,0.4477539,0.0,0.89404297
17/07/11 05:05:08:486,903,-0.7631836,0.025390625,0.56640625,-0.03511943,-0.044697456,0.0063853506,0.014160156,0.44726563,0.0,0.89404297
17/07/11 05:05:08:491,908,-0.75683594,0.025390625,0.5695801,-0.032990977,-0.044697456,0.0063853506,0.014160156,0.44726563,0.0,0.89404297
17/07/11 05:05:08:496,913,-0.75683594,0.025390625,0.5695801,-0.032990977,-0.044697456,0.0063853506,0.014160156,0.4477539,0.0,0.89404297
17/07/11 05:05:08:501,918,-0.75683594,0.025390625,0.5695801,-0.032990977,-0.044697456,0.0063853506,0.0146484375,0.44726563,0.0,0.89404297
17/07/11 05:05:08:506,923,-0.7585449,0.023925781,0.57421875,-0.034055203,-0.04576168,0.0063853506,0.0146484375,0.44726563,0.0,0.89404297
17/07/11 05:05:08:512,929,-0.76220703,0.024658203,0.57250977,-0.034055203,-0.04576168,0.0053211255,0.0146484375,0.44726563,0.0,0.89404297
17/07/11 05:05:08:518,935,-0.76220703,0.024658203,0.57250977,-0.034055203,-0.04576168,0.0053211255,0.014160156,0.44677734,0.0,0.89453125
17/07/11 05:05:08:523,940,-0.765625,0.022216797,0.57421875,-0.034055203,-0.044697456,0.0053211255,0.013671875,0.44628906,0.0,0.89453125
17/07/11 05:05:08:528,945,-0.765625,0.022216797,0.57421875,-0.034055203,-0.044697456,0.0053211255,0.013671875,0.44628906,0.0,0.89453125
17/07/11 05:05:08:533,950,-0.7607422,0.026367188,0.5656738,-0.032990977,-0.044697456,0.0053211255,0.013671875,0.44628906,0.0,0.89453125
17/07/11 05:05:08:538,955,-0.7607422,0.026367188,0.5656738,-0.032990977,-0.044697456,0.0053211255,0.013183594,0.44677734,0.0,0.89453125
17/07/11 05:05:08:543,960,-0.7590332,0.024902344,0.57299805,-0.034055203,-0.044697456,0.0063853506,0.013671875,0.44726563,0.0,0.89404297
17/07/11 05:05:08:548,965,-0.7590332,0.024902344,0.57299805,-0.034055203,-0.044697456,0.0063853506,0.013671875,0.44726563,0.0,0.89404297
17/07/11 05:05:08:553,970,-0.7614746,0.025878906,0.56811523,-0.032990977,-0.044697456,0.0063853506,0.013671875,0.44677734,0.0,0.89453125
17/07/11 05:05:08:559,976,-0.7614746,0.025878906,0.56811523,-0.032990977,-0.044697456,0.0063853506,0.013671875,0.44677734,0.0,0.89453125
17/07/11 05:05:08:563,980,-0.7614746,0.025878906,0.56811523,-0.032990977,-0.044697456,0.0063853506,0.013671875,0.44677734,0.0,0.89453125
17/07/11 05:05:08:568,985,-0.7614746,0.025878906,0.56811523,-0.032990977,-0.044697456,0.0063853506,0.013671875,0.44677734,0.0,0.89453125
17/07/11 05:05:08:573,990,-0.7614746,0.025878906,0.56811523,-0.032990977,-0.044697456,0.0063853506,0.013671875,0.44677734,0.0,0.89453125
17/07/11 05:05:08:578,995,-0.7614746,0.025878906,0.56811523,-0.032990977,-0.044697456,0.0063853506,0.013671875,0.44677734,0.0,0.89453125
17/07/11 05:05:08:583,1000,-0.7614746,0.025878906,0.56811523,-0.032990977,-0.044697456,0.0063853506,0.013671875,0.44677734,0.0,0.89453125
17/07/11 05:05:08:588,1005,-0.76831055,0.024414063,0.5739746,-0.03511943,-0.04576168,0.0063853506,0.014160156,0.44726563,0.0,0.89404297
17/07/11 05:05:08:593,1010,-0.7609863,0.0234375,0.56933594,-0.034055203,-0.044697456,0.0074495757,0.014160156,0.44726563,0.0,0.89404297
17/07/11 05:05:08:599,1016,-0.76293945,0.025878906,0.57373047,-0.034055203,-0.044697456,0.0053211255,0.013671875,0.44726563,0.0,0.89404297
17/07/11 05:05:08:604,1021,-0.76293945,0.02368164,0.57006836,-0.034055203,-0.044697456,0.0042569004,0.014160156,0.44677734,0.0,0.89404297
17/07/11 05:05:08:609,1026,-0.76293945,0.02368164,0.57006836,-0.034055203,-0.044697456,0.0042569004,0.014160156,0.44677734,0.0,0.89404297
17/07/11 05:05:08:614,1031,-0.7595215,0.025146484,0.57177734,-0.03511943,-0.044697456,0.0042569004,0.013671875,0.4477539,0.0,0.89404297
17/07/11 05:05:08:619,1036,-0.7595215,0.025146484,0.57177734,-0.03511943,-0.044697456,0.0042569004,0.013671875,0.4477539,0.0,0.89404297
17/07/11 05:05:08:624,1041,-0.7619629,0.026367188,0.5739746,-0.034055203,-0.04576168,0.0053211255,0.014160156,0.44677734,0.0,0.89404297
17/07/11 05:05:08:629,1046,-0.7619629,0.026367188,0.5739746,-0.034055203,-0.04576168,0.0053211255,0.014160156,0.44677734,0.0,0.89404297
17/07/11 05:05:08:634,1051,-0.7614746,0.025146484,0.57250977,-0.032990977,-0.044697456,0.0053211255,0.0146484375,0.44628906,0.0,0.89453125
17/07/11 05:05:08:639,1056,-0.7614746,0.025146484,0.57250977,-0.032990977,-0.044697456,0.0053211255,0.0146484375,0.44628906,0.0,0.89453125
17/07/11 05:05:08:644,1061,-0.7609863,0.026123047,0.57543945,-0.032990977,-0.04576168,0.0042569004,0.014160156,0.44580078,0.0,0.89453125
17/07/11 05:05:08:649,1066,-0.7609863,0.026123047,0.57543945,-0.032990977,-0.04576168,0.0042569004,0.014160156,0.44580078,0.0,0.89453125
17/07/11 05:05:08:654,1071,-0.7644043,0.026611328,0.5661621,-0.032990977,-0.04363323,0.0042569004,0.0146484375,0.4453125,0.0,0.89501953
17/07/11 05:05:08:659,1076,-0.7644043,0.026611328,0.5661621,-0.032990977,-0.04363323,0.0042569004,0.0146484375,0.4453125,0.0,0.89501953
17/07/11 05:05:08:664,1081,-0.763916,0.025146484,0.5751953,-0.032990977,-0.044697456,0.0053211255,0.0146484375,0.44580078,0.0,0.89453125
17/07/11 05:05:08:669,1086,-0.763916,0.025146484,0.5751953,-0.032990977,-0.044697456,0.0053211255,0.0146484375,0.44580078,0.0,0.89453125
17/07/11 05:05:08:674,1091,-0.76416016,0.0234375,0.5710449,-0.03192675,-0.04576168,0.0063853506,0.014160156,0.44580078,0.0,0.89453125
17/07/11 05:05:08:679,1096,-0.76416016,0.0234375,0.5710449,-0.03192675,-0.04576168,0.0063853506,0.014160156,0.44580078,0.0,0.89453125
17/07/11 05:05:08:684,1101,-0.76464844,0.025390625,0.5710449,-0.03511943,-0.044697456,0.0063853506,0.013671875,0.44677734,0.0,0.89453125
17/07/11 05:05:08:690,1107,-0.76464844,0.025390625,0.5710449,-0.03511943,-0.044697456,0.0063853506,0.013671875,0.44677734,0.0,0.89453125
17/07/11 05:05:08:695,1112,-0.76293945,0.025146484,0.5698242,-0.032990977,-0.044697456,0.0042569004,0.014160156,0.44726563,0.0,0.89404297
17/07/11 05:05:08:700,1117,-0.76293945,0.025146484,0.5698242,-0.032990977,-0.044697456,0.0042569004,0.014160156,0.44726563,0.0,0.89404297
17/07/11 05:05:08:705,1122,-0.76708984,0.025634766,0.5703125,-0.032990977,-0.044697456,0.0063853506,0.014160156,0.4477539,0.0,0.89404297
17/07/11 05:05:08:710,1127,-0.76708984,0.025634766,0.5703125,-0.032990977,-0.044697456,0.0063853506,0.014160156,0.4477539,0.0,0.89404297
17/07/11 05:05:08:715,1132,-0.75805664,0.022949219,0.57299805,-0.032990977,-0.044697456,0.0042569004,0.0146484375,0.4482422,0.0,0.8935547
17/07/11 05:05:08:720,1137,-0.75805664,0.022949219,0.57299805,-0.032990977,-0.044697456,0.0042569004,0.0146484375,0.4482422,0.0,0.8935547
17/07/11 05:05:08:726,1143,-0.76660156,0.025146484,0.5732422,-0.034055203,-0.044697456,0.0042569004,0.014160156,0.4477539,0.0,0.89404297
17/07/11 05:05:08:731,1148,-0.76660156,0.025146484,0.5732422,-0.034055203,-0.044697456,0.0042569004,0.014160156,0.4477539,0.0,0.89404297
17/07/11 05:05:08:736,1153,-0.7607422,0.025390625,0.56884766,-0.032990977,-0.04576168,0.0042569004,0.0146484375,0.44677734,0.0,0.89404297
17/07/11 05:05:08:741,1158,-0.7607422,0.025390625,0.56884766,-0.032990977,-0.04576168,0.0042569004,0.0146484375,0.44677734,0.0,0.89404297
17/07/11 05:05:08:746,1163,-0.76416016,0.024902344,0.57055664,-0.034055203,-0.04576168,0.0053211255,0.0146484375,0.4477539,0.0,0.89404297
17/07/11 05:05:08:751,1168,-0.76416016,0.024902344,0.57055664,-0.034055203,-0.04576168,0.0053211255,0.0146484375,0.4477539,0.0,0.89404297
17/07/11 05:05:08:757,1174,-0.7651367,0.028076172,0.57177734,-0.03511943,-0.04576168,0.0031926753,0.014160156,0.4477539,0.0,0.8935547
17/07/11 05:05:08:762,1179,-0.7631836,0.024414063,0.5732422,-0.034055203,-0.044697456,0.0053211255,0.0146484375,0.4477539,0.0,0.8935547
17/07/11 05:05:08:767,1184,-0.7631836,0.024414063,0.5732422,-0.034055203,-0.044697456,0.0053211255,0.0146484375,0.4477539,0.0,0.8935547
17/07/11 05:05:08:773,1190,-0.7631836,0.024414063,0.5732422,-0.034055203,-0.044697456,0.0053211255,0.0146484375,0.4477539,0.0,0.8935547
17/07/11 05:05:08:778,1195,-0.7631836,0.024414063,0.5732422,-0.034055203,-0.044697456,0.0053211255,0.0146484375,0.4477539,0.0,0.8935547
17/07/11 05:05:08:783,1200,-0.7631836,0.024414063,0.5732422,-0.034055203,-0.044697456,0.0053211255,0.0146484375,0.4477539,0.0,0.8935547
17/07/11 05:05:08:788,1205,-0.7631836,0.024414063,0.5732422,-0.034055203,-0.044697456,0.0053211255,0.0146484375,0.4477539,0.0,0.8935547
17/07/11 05:05:08:793,1210,-0.7631836,0.024414063,0.5732422,-0.034055203,-0.044697456,0.0053211255,0.0146484375,0.4477539,0.0,0.8935547
17/07/11 05:05:08:798,1215,-0.7602539,0.025390625,0.5720215,-0.034055203,-0.04363323,0.0042569004,0.0146484375,0.44726563,0.0,0.89404297
17/07/11 05:05:08:804,1221,-0.7636719,0.025146484,0.5761719,-0.03511943,-0.044697456,0.0042569004,0.0146484375,0.44628906,0.0,0.89453125
17/07/11 05:05:08:809,1226,-0.7636719,0.025146484,0.5761719,-0.03511943,-0.044697456,0.0042569004,0.0146484375,0.44628906,0.0,0.89453125
17/07/11 05:05:08:814,1231,-0.75390625,0.0234375,0.5739746,-0.03511943,-0.04576168,0.0053211255,0.0146484375,0.44580078,0.0,0.89453125
17/07/11 05:05:08:820,1237,-0.75390625,0.0234375,0.5739746,-0.03511943,-0.04576168,0.0053211255,0.0146484375,0.44580078,0.0,0.89453125
17/07/11 05:05:08:826,1243,-0.75390625,0.0234375,0.5739746,-0.03511943,-0.04576168,0.0053211255,0.0146484375,0.44580078,0.0,0.89453125
17/07/11 05:05:08:832,1249,-0.75390625,0.0234375,0.5739746,-0.03511943,-0.04576168,0.0053211255,0.0146484375,0.44580078,0.0,0.89453125
17/07/11 05:05:08:840,1257,-0.75390625,0.0234375,0.5739746,-0.03511943,-0.04576168,0.0053211255,0.0146484375,0.44580078,0.0,0.89453125
17/07/11 05:05:08:846,1263,-0.77563477,0.020263672,0.5686035,-0.03511943,-0.044697456,0.0074495757,0.014160156,0.4453125,0.0,0.89501953
17/07/11 05:05:08:850,1267,-0.77563477,0.020263672,0.5686035,-0.03511943,-0.044697456,0.0074495757,0.014160156,0.4453125,0.0,0.89501953
17/07/11 05:05:08:855,1272,-0.734375,0.00390625,0.57714844,-0.03511943,-0.042569004,0.0063853506,0.0126953125,0.44628906,-4.8828125E-4,0.89453125
17/07/11 05:05:08:860,1277,-0.734375,0.00390625,0.57714844,-0.03511943,-0.042569004,0.0063853506,0.0126953125,0.44628906,-4.8828125E-4,0.89453125
17/07/11 05:05:08:865,1282,-0.7854004,0.06616211,0.5629883,-0.027669853,-0.046825904,0.010642251,0.012207031,0.44580078,-4.8828125E-4,0.89501953
17/07/11 05:05:08:870,1287,-0.7854004,0.06616211,0.5629883,-0.027669853,-0.046825904,0.010642251,0.012207031,0.44580078,-4.8828125E-4,0.89501953
17/07/11 05:05:08:875,1292,-0.8039551,0.036376953,0.5900879,-0.03511943,-0.04789013,0.008513801,0.015136719,0.44726563,4.8828125E-4,0.89404297
17/07/11 05:05:08:881,1298,-0.8039551,0.036376953,0.5900879,-0.03511943,-0.04789013,0.008513801,0.015136719,0.44726563,4.8828125E-4,0.89404297
17/07/11 05:05:08:886,1303,-0.6894531,0.03857422,0.53125,-0.034055203,-0.03937633,-0.0031926753,0.016113281,0.44873047,9.765625E-4,0.8935547
17/07/11 05:05:08:891,1308,-0.6894531,0.03857422,0.53125,-0.034055203,-0.03937633,-0.0031926753,0.016113281,0.44873047,9.765625E-4,0.8935547
17/07/11 05:05:08:896,1313,-0.7792969,-0.020996094,0.59521484,-0.041504778,-0.046825904,0.014899151,0.020019531,0.44384766,0.0029296875,0.8959961
17/07/11 05:05:08:902,1319,-0.81933594,0.03100586,0.57177734,-0.027669853,-0.042569004,0.012770701,0.020019531,0.44384766,0.0029296875,0.8959961
17/07/11 05:05:08:907,1324,-0.81933594,0.03100586,0.57177734,-0.027669853,-0.042569004,0.012770701,0.0126953125,0.44335938,0.0,0.8959961
17/07/11 05:05:08:912,1329,-0.7246094,0.032958984,0.58081055,-0.032990977,-0.046825904,-0.0031926753,0.0126953125,0.44335938,0.0,0.8959961
17/07/11 05:05:08:917,1334,-0.7246094,0.032958984,0.58081055,-0.032990977,-0.046825904,-0.0031926753,0.013671875,0.44628906,0.0,0.89453125
17/07/11 05:05:08:922,1339,-0.7531738,0.020751953,0.5593262,-0.03511943,-0.04789013,0.0074495757,0.013671875,0.44628906,0.0,0.89453125
17/07/11 05:05:08:927,1344,-0.7531738,0.020751953,0.5593262,-0.03511943,-0.04789013,0.0074495757,0.014160156,0.44384766,0.0,0.8959961
17/07/11 05:05:08:932,1349,-0.8198242,0.07324219,0.5444336,-0.030862529,-0.03937633,0.013834926,0.014160156,0.44384766,0.0,0.8959961
17/07/11 05:05:08:937,1354,-0.8198242,0.07324219,0.5444336,-0.030862529,-0.03937633,0.013834926,0.013671875,0.44482422,0.0,0.89501953
17/07/11 05:05:08:942,1359,-0.732666,0.004638672,0.5871582,-0.03937633,-0.046825904,-0.0021284502,0.013671875,0.44482422,0.0,0.89501953
17/07/11 05:05:08:948,1365,-0.732666,0.004638672,0.5871582,-0.03937633,-0.046825904,-0.0021284502,0.015625,0.44726563,9.765625E-4,0.89404297
17/07/11 05:05:08:953,1370,-0.751709,0.0024414063,0.56884766,-0.03511943,-0.041504778,0.009578026,0.012207031,0.4423828,-4.8828125E-4,0.8964844
17/07/11 05:05:08:958,1375,-0.751709,0.0024414063,0.56884766,-0.03511943,-0.041504778,0.009578026,0.012207031,0.4423828,-4.8828125E-4,0.8964844
17/07/11 05:05:08:963,1380,-0.7680664,0.038085938,0.5817871,-0.030862529,-0.04363323,0.0053211255,0.0107421875,0.4428711,-0.0014648438,0.8959961
17/07/11 05:05:08:968,1385,-0.7680664,0.038085938,0.5817871,-0.030862529,-0.04363323,0.0053211255,0.0107421875,0.4428711,-0.0014648438,0.8959961
17/07/11 05:05:08:973,1390,-0.7680664,0.038085938,0.5817871,-0.030862529,-0.04363323,0.0053211255,0.0107421875,0.4428711,-0.0014648438,0.8959961
17/07/11 05:05:08:978,1395,-0.7680664,0.038085938,0.5817871,-0.030862529,-0.04363323,0.0053211255,0.0107421875,0.4428711,-0.0014648438,0.8959961
17/07/11 05:05:08:983,1400,-0.7680664,0.038085938,0.5817871,-0.030862529,-0.04363323,0.0053211255,0.0107421875,0.4428711,-0.0014648438,0.8959961
17/07/11 05:05:08:988,1405,-0.7680664,0.038085938,0.5817871,-0.030862529,-0.04363323,0.0053211255,0.0107421875,0.4428711,-0.0014648438,0.8959961
17/07/11 05:05:08:993,1410,-0.7531738,-0.0026855469,0.57421875,-0.036183655,-0.05001858,0.0042569004,0.012207031,0.44335938,-4.8828125E-4,0.8959961
17/07/11 05:05:09:006,1423,-0.7380371,0.0036621094,0.57543945,-0.034055203,-0.04576168,0.0063853506,0.015625,0.44384766,4.8828125E-4,0.8955078
17/07/11 05:05:09:012,1429,-0.7668457,0.03466797,0.5839844,-0.032990977,-0.040440552,0.0063853506,0.014160156,0.44335938,0.0,0.8959961
17/07/11 05:05:09:018,1435,-0.7668457,0.03466797,0.5839844,-0.032990977,-0.040440552,0.0063853506,0.014160156,0.44335938,0.0,0.8959961
17/07/11 05:05:09:023,1440,-0.7668457,0.03466797,0.5839844,-0.032990977,-0.040440552,0.0063853506,0.014160156,0.44335938,0.0,0.8959961
17/07/11 05:05:09:032,1449,-0.7668457,0.03466797,0.5839844,-0.032990977,-0.040440552,0.0063853506,0.014160156,0.44335938,0.0,0.8959961
17/07/11 05:05:09:041,1458,-0.7668457,0.03466797,0.5839844,-0.032990977,-0.040440552,0.0063853506,0.014160156,0.44335938,0.0,0.8959961
17/07/11 05:05:09:049,1466,-0.7453613,0.044433594,0.57958984,-0.032990977,-0.04576168,0.0010642251,0.013671875,0.44580078,0.0,0.89501953
17/07/11 05:05:09:054,1471,-0.75805664,0.013671875,0.56689453,-0.037247878,-0.04363323,0.008513801,0.016601563,0.44384766,9.765625E-4,0.8959961
17/07/11 05:05:09:059,1476,-0.75805664,0.013671875,0.56689453,-0.037247878,-0.04363323,0.008513801,0.016601563,0.44384766,9.765625E-4,0.8959961
17/07/11 05:05:09:064,1481,-0.76782227,0.05029297,0.57250977,-0.03192675,-0.040440552,0.0053211255,0.0146484375,0.44433594,4.8828125E-4,0.8955078
17/07/11 05:05:09:069,1486,-0.76782227,0.05029297,0.57250977,-0.03192675,-0.040440552,0.0053211255,0.0146484375,0.44433594,4.8828125E-4,0.8955078
17/07/11 05:05:09:075,1492,-0.7692871,0.0021972656,0.576416,-0.03511943,-0.04789013,0.0031926753,0.016601563,0.44482422,9.765625E-4,0.89501953
17/07/11 05:05:09:081,1498,-0.7692871,0.0021972656,0.576416,-0.03511943,-0.04789013,0.0031926753,0.016601563,0.44482422,9.765625E-4,0.89501953
17/07/11 05:05:09:086,1503,-0.79345703,0.028076172,0.55688477,-0.032990977,-0.041504778,0.009578026,0.0146484375,0.4453125,4.8828125E-4,0.89501953
17/07/11 05:05:09:091,1508,-0.79345703,0.028076172,0.55688477,-0.032990977,-0.041504778,0.009578026,0.0146484375,0.4453125,4.8828125E-4,0.89501953
17/07/11 05:05:09:096,1513,-0.7458496,0.04248047,0.57714844,-0.032990977,-0.04576168,-0.0,0.0146484375,0.44677734,4.8828125E-4,0.89453125
17/07/11 05:05:09:101,1518,-0.7458496,0.04248047,0.57714844,-0.032990977,-0.04576168,-0.0,0.0146484375,0.44677734,4.8828125E-4,0.89453125
17/07/11 05:05:09:106,1523,-0.7741699,0.024169922,0.5722656,-0.034055203,-0.048954353,0.009578026,0.017089844,0.44482422,0.0014648438,0.8955078
17/07/11 05:05:09:112,1529,-0.7741699,0.024169922,0.5722656,-0.034055203,-0.048954353,0.009578026,0.017089844,0.44482422,0.0014648438,0.8955078
17/07/11 05:05:09:117,1534,-0.7602539,0.052734375,0.5749512,-0.034055203,-0.040440552,0.0031926753,0.016601563,0.44580078,9.765625E-4,0.89453125
17/07/11 05:05:09:122,1539,-0.75219727,0.0031738281,0.5722656,-0.038312104,-0.04576168,0.0031926753,0.016601563,0.44580078,0.001953125,0.89453125
17/07/11 05:05:09:127,1544,-0.75219727,0.0031738281,0.5722656,-0.038312104,-0.04576168,0.0031926753,0.018066406,0.44580078,0.001953125,0.89453125
17/07/11 05:05:09:132,1549,-0.7753906,0.0126953125,0.5629883,-0.03192675,-0.044697456,0.008513801,0.0146484375,0.4453125,4.8828125E-4,0.89501953
17/07/11 05:05:09:137,1554,-0.7753906,0.0126953125,0.5629883,-0.03192675,-0.044697456,0.008513801,0.0146484375,0.4453125,4.8828125E-4,0.89501953
17/07/11 05:05:09:142,1559,-0.74487305,0.028076172,0.58203125,-0.034055203,-0.04363323,0.0031926753,0.013671875,0.44628906,0.0,0.89453125
17/07/11 05:05:09:147,1564,-0.74487305,0.028076172,0.58203125,-0.034055203,-0.04363323,0.0031926753,0.013671875,0.44628906,0.0,0.89453125
17/07/11 05:05:09:152,1569,-0.74487305,0.028076172,0.58203125,-0.034055203,-0.046825904,0.008513801,0.014160156,0.4453125,0.0,0.89501953
17/07/11 05:05:09:157,1574,-0.7702637,0.013427734,0.57421875,-0.036183655,-0.046825904,0.008513801,0.014160156,0.4453125,0.0,0.89501953
17/07/11 05:05:09:162,1579,-0.7583008,0.050048828,0.57788086,-0.029798303,-0.04363323,0.0031926753,0.0126953125,0.44580078,-4.8828125E-4,0.89453125
17/07/11 05:05:09:167,1584,-0.7583008,0.050048828,0.57788086,-0.029798303,-0.04363323,0.0031926753,0.0126953125,0.44580078,-4.8828125E-4,0.89453125
17/07/11 05:05:09:173,1590,-0.7583008,0.050048828,0.57788086,-0.029798303,-0.04363323,0.0031926753,0.0126953125,0.44580078,-4.8828125E-4,0.89453125
17/07/11 05:05:09:178,1595,-0.7583008,0.050048828,0.57788086,-0.029798303,-0.04363323,0.0031926753,0.0126953125,0.44580078,-4.8828125E-4,0.89453125
17/07/11 05:05:09:183,1600,-0.7583008,0.050048828,0.57788086,-0.029798303,-0.04363323,0.0031926753,0.0126953125,0.44580078,-4.8828125E-4,0.89453125
17/07/11 05:05:09:189,1606,-0.7583008,0.050048828,0.57788086,-0.029798303,-0.04363323,0.0031926753,0.0126953125,0.44580078,-4.8828125E-4,0.89453125
17/07/11 05:05:09:194,1611,-0.7583008,0.050048828,0.57788086,-0.029798303,-0.04363323,0.0031926753,0.0126953125,0.44580078,-4.8828125E-4,0.89453125
17/07/11 05:05:09:199,1616,-0.7541504,0.026611328,0.57177734,-0.03511943,-0.044697456,0.0053211255,0.0146484375,0.44580078,0.0,0.89501953
17/07/11 05:05:09:204,1621,-0.77124023,0.021484375,0.56811523,-0.03192675,-0.046825904,0.0063853506,0.013671875,0.44384766,0.0,0.8955078
17/07/11 05:05:09:209,1626,-0.77124023,0.021484375,0.56811523,-0.03192675,-0.046825904,0.0063853506,0.013671875,0.44384766,0.0,0.8955078
17/07/11 05:05:09:214,1631,-0.73950195,0.029785156,0.57958984,-0.03511943,-0.044697456,-0.0,0.013671875,0.44433594,0.0,0.8955078
17/07/11 05:05:09:219,1636,-0.73950195,0.029785156,0.57958984,-0.03511943,-0.044697456,-0.0,0.013671875,0.44433594,0.0,0.8955078
17/07/11 05:05:09:225,1642,-0.73950195,0.029785156,0.57958984,-0.03511943,-0.044697456,-0.0,0.013671875,0.44433594,0.0,0.8955078
17/07/11 05:05:09:230,1647,-0.73950195,0.029785156,0.57958984,-0.03511943,-0.044697456,-0.0,0.013671875,0.44433594,0.0,0.8955078
17/07/11 05:05:09:244,1661,-0.73950195,0.029785156,0.57958984,-0.03511943,-0.044697456,-0.0,0.013671875,0.44433594,0.0,0.8955078
17/07/11 05:05:09:249,1666,-0.7727051,0.034423828,0.56469727,-0.034055203,-0.04363323,0.009578026,0.014160156,0.44335938,0.0,0.8959961
17/07/11 05:05:09:255,1672,-0.7717285,0.013671875,0.56884766,-0.036183655,-0.04363323,0.010642251,0.0146484375,0.44335938,4.8828125E-4,0.8959961
17/07/11 05:05:09:260,1677,-0.72924805,0.013671875,0.5847168,-0.030862529,-0.046825904,0.0010642251,0.0146484375,0.44335938,4.8828125E-4,0.8959961
17/07/11 05:05:09:265,1682,-0.72924805,0.013671875,0.5847168,-0.030862529,-0.046825904,0.0010642251,0.013671875,0.44482422,0.0,0.8955078
17/07/11 05:05:09:271,1688,-0.78686523,0.032226563,0.5917969,-0.03192675,-0.044697456,0.010642251,0.013671875,0.44482422,0.0,0.8955078
17/07/11 05:05:09:275,1692,-0.78686523,0.032226563,0.5917969,-0.03192675,-0.044697456,0.010642251,0.013183594,0.44335938,0.0,0.8959961
17/07/11 05:05:09:280,1697,-0.78686523,0.032226563,0.5917969,-0.03192675,-0.044697456,0.010642251,0.013183594,0.44335938,0.0,0.8959961
17/07/11 05:05:09:285,1702,-0.7614746,0.049804688,0.5695801,-0.03511943,-0.044697456,0.0021284502,0.013183594,0.44335938,9.765625E-4,0.89501953
17/07/11 05:05:09:290,1707,-0.7614746,0.049804688,0.5695801,-0.03511943,-0.044697456,0.0021284502,0.016113281,0.4453125,9.765625E-4,0.89501953
17/07/11 05:05:09:295,1712,-0.7141113,0.0014648438,0.58862305,-0.036183655,-0.044697456,-0.0010642251,0.017578125,0.44580078,0.001953125,0.89501953
17/07/11 05:05:09:300,1717,-0.7141113,0.0014648438,0.58862305,-0.036183655,-0.044697456,-0.0010642251,0.017578125,0.44580078,0.001953125,0.89501953
17/07/11 05:05:09:305,1722,-0.74975586,0.02709961,0.54052734,-0.03192675,-0.041504778,0.009578026,0.015625,0.44335938,9.765625E-4,0.8959961
17/07/11 05:05:09:310,1727,-0.74975586,0.02709961,0.54052734,-0.03192675,-0.041504778,0.009578026,0.015625,0.44335938,9.765625E-4,0.8959961
17/07/11 05:05:09:315,1732,-0.76464844,-0.0021972656,0.5859375,-0.041504778,-0.04576168,0.0031926753,0.015625,0.44628906,9.765625E-4,0.89453125
17/07/11 05:05:09:320,1737,-0.76464844,-0.0021972656,0.5859375,-0.041504778,-0.04576168,0.0031926753,0.015625,0.44628906,9.765625E-4,0.89453125
17/07/11 05:05:09:325,1742,-0.7805176,0.038330078,0.56469727,-0.029798303,-0.046825904,0.0074495757,0.012207031,0.4453125,-4.8828125E-4,0.89501953
17/07/11 05:05:09:330,1747,-0.77319336,0.055419922,0.5773926,-0.029798303,-0.046825904,0.0042569004,0.012207031,0.4453125,-4.8828125E-4,0.89501953
17/07/11 05:05:09:335,1752,-0.77319336,0.055419922,0.5773926,-0.029798303,-0.046825904,0.0042569004,0.013671875,0.44628906,0.0,0.89453125
17/07/11 05:05:09:341,1758,-0.77319336,0.055419922,0.5773926,-0.029798303,-0.046825904,0.0042569004,0.013671875,0.44628906,0.0,0.89453125
17/07/11 05:05:09:347,1764,-0.7558594,0.020996094,0.5847168,-0.03937633,-0.04363323,0.0010642251,0.015136719,0.44628906,4.8828125E-4,0.89453125
17/07/11 05:05:09:353,1770,-0.81396484,0.033935547,0.5500488,-0.03511943,-0.040440552,0.012770701,0.0146484375,0.4453125,0.0,0.89501953
17/07/11 05:05:09:358,1775,-0.81396484,0.033935547,0.5500488,-0.03511943,-0.040440552,0.012770701,0.0146484375,0.4453125,0.0,0.89501953
17/07/11 05:05:09:363,1780,-0.7385254,0.01586914,0.57666016,-0.032990977,-0.05001858,-0.0031926753,0.015136719,0.4477539,4.8828125E-4,0.8935547
17/07/11 05:05:09:368,1785,-0.7385254,0.01586914,0.57666016,-0.032990977,-0.05001858,-0.0031926753,0.015136719,0.4477539,4.8828125E-4,0.8935547
17/07/11 05:05:09:373,1790,-0.7385254,0.01586914,0.57666016,-0.032990977,-0.05001858,-0.0031926753,0.015136719,0.4477539,4.8828125E-4,0.8935547
17/07/11 05:05:09:378,1795,-0.7385254,0.01586914,0.57666016,-0.032990977,-0.05001858,-0.0031926753,0.015136719,0.4477539,4.8828125E-4,0.8935547
17/07/11 05:05:09:384,1801,-0.7385254,0.01586914,0.57666016,-0.032990977,-0.05001858,-0.0031926753,0.015136719,0.4477539,4.8828125E-4,0.8935547
17/07/11 05:05:09:389,1806,-0.7385254,0.01586914,0.57666016,-0.032990977,-0.05001858,-0.0031926753,0.015136719,0.4477539,4.8828125E-4,0.8935547
17/07/11 05:05:09:394,1811,-0.7385254,0.01586914,0.57666016,-0.032990977,-0.05001858,-0.0031926753,0.015136719,0.4477539,4.8828125E-4,0.8935547
17/07/11 05:05:09:399,1816,-0.7392578,0.011474609,0.58496094,-0.034055203,-0.048954353,0.0021284502,0.015136719,0.44628906,4.8828125E-4,0.89453125
17/07/11 05:05:09:404,1821,-0.7895508,0.018554688,0.57128906,-0.034055203,-0.04363323,0.010642251,0.0146484375,0.44482422,0.0,0.89501953
17/07/11 05:05:09:410,1827,-0.7895508,0.018554688,0.57128906,-0.034055203,-0.04363323,0.010642251,0.0146484375,0.44482422,0.0,0.89501953
17/07/11 05:05:09:415,1832,-0.74975586,0.009765625,0.5788574,-0.038312104,-0.044697456,-0.0010642251,0.013671875,0.4477539,0.0,0.89404297
17/07/11 05:05:09:420,1837,-0.74975586,0.009765625,0.5788574,-0.038312104,-0.044697456,-0.0010642251,0.013671875,0.4477539,0.0,0.89404297
17/07/11 05:05:09:425,1842,-0.7573242,0.011474609,0.55859375,-0.03192675,-0.051082805,0.0053211255,0.012207031,0.44628906,-4.8828125E-4,0.89453125
17/07/11 05:05:09:430,1847,-0.7573242,0.011474609,0.55859375,-0.03192675,-0.051082805,0.0053211255,0.012207031,0.44628906,-4.8828125E-4,0.89453125
17/07/11 05:05:09:436,1853,-0.7573242,0.043945313,0.57470703,-0.029798303,-0.04576168,0.0042569004,0.011230469,0.4477539,-9.765625E-4,0.89404297
17/07/11 05:05:09:441,1858,-0.7573242,0.043945313,0.57470703,-0.029798303,-0.04576168,0.0042569004,0.011230469,0.4477539,-9.765625E-4,0.89404297
17/07/11 05:05:09:446,1863,-0.7602539,0.024902344,0.5788574,-0.038312104,-0.04363323,0.0063853506,0.013183594,0.44726563,0.0,0.89404297
17/07/11 05:05:09:451,1868,-0.7602539,0.024902344,0.5788574,-0.038312104,-0.04363323,0.0063853506,0.013183594,0.44726563,0.0,0.89404297
17/07/11 05:05:09:457,1874,-0.77490234,0.016601563,0.57910156,-0.03511943,-0.044697456,0.0053211255,0.013183594,0.44628906,0.0,0.89453125
17/07/11 05:05:09:462,1879,-0.751709,0.033203125,0.57299805,-0.029798303,-0.044697456,0.0021284502,0.0126953125,0.44677734,-4.8828125E-4,0.89453125
17/07/11 05:05:09:467,1884,-0.751709,0.033203125,0.57299805,-0.029798303,-0.044697456,0.0021284502,0.0126953125,0.44677734,-4.8828125E-4,0.89453125
17/07/11 05:05:09:472,1889,-0.7705078,0.009277344,0.5649414,-0.037247878,-0.044697456,0.008513801,0.0126953125,0.44677734,0.0,0.89453125
17/07/11 05:05:09:477,1894,-0.7705078,0.009277344,0.5649414,-0.037247878,-0.044697456,0.008513801,0.014160156,0.44580078,0.0,0.89453125
17/07/11 05:05:09:482,1899,-0.7705078,0.009277344,0.5649414,-0.037247878,-0.044697456,0.008513801,0.014160156,0.44580078,0.0,0.89453125
17/07/11 05:05:09:488,1905,-0.7438965,0.041015625,0.5776367,-0.03511943,-0.042569004,0.0042569004,0.0126953125,0.44677734,-4.8828125E-4,0.89404297
17/07/11 05:05:09:493,1910,-0.7824707,0.061279297,0.576416,-0.042569004,-0.03192675,0.008513801,0.013671875,0.44580078,0.0,0.89453125
17/07/11 05:05:09:498,1915,-0.7824707,0.061279297,0.576416,-0.042569004,-0.03192675,0.008513801,0.013671875,0.44580078,0.0,0.89453125
17/07/11 05:05:09:503,1920,-0.77124023,-0.0075683594,0.5541992,-0.037247878,-0.04576168,0.0031926753,0.015625,0.44628906,9.765625E-4,0.89453125
17/07/11 05:05:09:508,1925,-0.77124023,-0.0075683594,0.5541992,-0.037247878,-0.04576168,0.0031926753,0.015625,0.44628906,9.765625E-4,0.89453125
17/07/11 05:05:09:513,1930,-0.7614746,0.017089844,0.5786133,-0.029798303,-0.046825904,0.0053211255,0.0126953125,0.4482422,0.0,0.8935547
17/07/11 05:05:09:518,1935,-0.7614746,0.017089844,0.5786133,-0.029798303,-0.046825904,0.0053211255,0.0126953125,0.4482422,0.0,0.8935547
17/07/11 05:05:09:524,1941,-0.7907715,0.019042969,0.5571289,-0.048954353,-0.03192675,0.009578026,0.012207031,0.44677734,-4.8828125E-4,0.89453125
17/07/11 05:05:09:529,1946,-0.7907715,0.019042969,0.5571289,-0.048954353,-0.03192675,0.009578026,0.012207031,0.44677734,-4.8828125E-4,0.89453125
17/07/11 05:05:09:535,1952,-0.7429199,-0.010986328,0.5805664,-0.03937633,-0.04789013,-0.0010642251,0.01171875,0.4482422,-4.8828125E-4,0.8935547
17/07/11 05:05:09:552,1969,-0.7463379,0.029541016,0.57055664,-0.041504778,-0.042569004,0.0021284502,0.016113281,0.4482422,9.765625E-4,0.8935547
17/07/11 05:05:09:557,1974,-0.7463379,0.029541016,0.57055664,-0.041504778,-0.042569004,0.0021284502,0.016113281,0.4482422,9.765625E-4,0.8935547
17/07/11 05:05:09:562,1979,-0.7463379,0.029541016,0.5671387,-0.041504778,-0.042569004,0.0021284502,0.016113281,0.4482422,9.765625E-4,0.8935547
17/07/11 05:05:09:567,1984,-0.77978516,-0.016845703,0.5671387,-0.042569004,-0.037247878,0.010642251,0.016113281,0.4453125,9.765625E-4,0.89501953
17/07/11 05:05:09:573,1990,-0.77978516,-0.016845703,0.5671387,-0.042569004,-0.037247878,0.010642251,0.016113281,0.4453125,9.765625E-4,0.89501953
17/07/11 05:05:09:579,1996,-0.77978516,-0.016845703,0.5671387,-0.042569004,-0.037247878,0.010642251,0.016113281,0.4453125,9.765625E-4,0.89501953
17/07/11 05:05:09:584,2001,-0.77978516,-0.016845703,0.5671387,-0.042569004,-0.037247878,0.010642251,0.016113281,0.4453125,9.765625E-4,0.89501953
17/07/11 05:05:09:589,2006,-0.77978516,-0.016845703,0.5671387,-0.042569004,-0.037247878,0.010642251,0.016113281,0.4453125,9.765625E-4,0.89501953
17/07/11 05:05:09:594,2011,-0.77978516,-0.016845703,0.5671387,-0.042569004,-0.037247878,0.010642251,0.016113281,0.4453125,9.765625E-4,0.89501953
17/07/11 05:05:09:599,2016,-0.76000977,0.0107421875,0.5673828,-0.013834926,-0.05853238,0.0063853506,0.013183594,0.44628906,0.0,0.89453125
17/07/11 05:05:09:604,2021,-0.68530273,0.0859375,0.55126953,-0.022348728,-0.05853238,-0.015963376,0.0126953125,0.44677734,-4.8828125E-4,0.89453125
17/07/11 05:05:09:609,2026,-0.68530273,0.0859375,0.55126953,-0.022348728,-0.05853238,-0.015963376,0.0126953125,0.44677734,-4.8828125E-4,0.89453125
17/07/11 05:05:09:614,2031,-0.8171387,0.068603516,0.5744629,-0.03511943,-0.03937633,0.017027602,0.018554688,0.44384766,0.0024414063,0.8959961
17/07/11 05:05:09:619,2036,-0.8171387,0.068603516,0.5744629,-0.03511943,-0.03937633,0.017027602,0.018554688,0.44384766,0.0024414063,0.8959961
17/07/11 05:05:09:624,2041,-0.8171387,0.068603516,0.5744629,-0.03511943,-0.03937633,0.017027602,0.018554688,0.44384766,0.0024414063,0.8959961
17/07/11 05:05:09:629,2046,-0.8171387,0.068603516,0.5744629,-0.03511943,-0.03937633,0.017027602,0.018554688,0.44384766,0.0024414063,0.8959961
17/07/11 05:05:09:634,2051,-0.8171387,0.068603516,0.5744629,-0.03511943,-0.03937633,0.017027602,0.018554688,0.44384766,0.0024414063,0.8959961
17/07/11 05:05:09:639,2056,-0.8171387,0.068603516,0.5744629,-0.03511943,-0.03937633,0.017027602,0.018554688,0.44384766,0.0024414063,0.8959961
17/07/11 05:05:09:644,2061,-0.8171387,0.068603516,0.5744629,-0.03511943,-0.03937633,0.017027602,0.018554688,0.44384766,0.0024414063,0.8959961
17/07/11 05:05:09:650,2067,-0.7133789,-0.07519531,0.6442871,-0.05214703,-0.046825904,-0.010642251,0.023925781,0.45117188,0.0048828125,0.89208984
17/07/11 05:05:09:655,2072,-0.7844238,0.008056641,0.54541016,-0.034055203,-0.048954353,0.0063853506,0.014160156,0.44873047,0.0,0.8935547
17/07/11 05:05:09:660,2077,-0.7844238,0.008056641,0.54541016,-0.034055203,-0.048954353,0.0063853506,0.014160156,0.44873047,0.0,0.8935547
17/07/11 05:05:09:666,2083,-0.7844238,0.008056641,0.54541016,-0.034055203,-0.048954353,0.0063853506,0.014160156,0.44873047,0.0,0.8935547
17/07/11 05:05:09:671,2088,-0.7844238,0.008056641,0.54541016,-0.034055203,-0.048954353,0.0063853506,0.014160156,0.44873047,0.0,0.8935547
17/07/11 05:05:09:676,2093,-0.7844238,0.008056641,0.54541016,-0.034055203,-0.048954353,0.0063853506,0.014160156,0.44873047,0.0,0.8935547
17/07/11 05:05:09:681,2098,-0.7844238,0.008056641,0.54541016,-0.034055203,-0.048954353,0.0063853506,0.014160156,0.44873047,0.0,0.8935547
17/07/11 05:05:09:687,2104,-0.74487305,0.04296875,0.5541992,-0.027669853,-0.053211257,-0.0021284502,0.013183594,0.4501953,0.0,0.8925781
17/07/11 05:05:09:692,2109,-0.7180176,0.0041503906,0.5979004,-0.04576168,-0.04363323,-0.0074495757,0.020019531,0.45117188,0.0029296875,0.89208984
17/07/11 05:05:09:698,2115,-0.78027344,-0.0031738281,0.5578613,-0.029798303,-0.042569004,0.012770701,0.017089844,0.44580078,0.0014648438,0.89453125
17/07/11 05:05:09:702,2119,-0.74438477,-0.020751953,0.57373047,-0.030862529,-0.05001858,-0.0,0.017089844,0.44580078,0.0014648438,0.89453125
17/07/11 05:05:09:708,2125,-0.74438477,-0.020751953,0.57373047,-0.030862529,-0.05001858,-0.0,0.014160156,0.4477539,0.0,0.8935547
17/07/11 05:05:09:713,2130,-0.73583984,-0.030029297,0.5793457,-0.040440552,-0.04576168,0.0053211255,0.0126953125,0.44726563,0.0,0.89404297
17/07/11 05:05:09:719,2136,-0.73583984,-0.030029297,0.5793457,-0.040440552,-0.04576168,0.0053211255,0.0126953125,0.44726563,0.0,0.89404297
17/07/11 05:05:09:724,2141,-0.79296875,0.060791016,0.5588379,-0.028734077,-0.044697456,0.011706476,0.01171875,0.44726563,-4.8828125E-4,0.89404297
17/07/11 05:05:09:729,2146,-0.79296875,0.060791016,0.5588379,-0.028734077,-0.044697456,0.011706476,0.01171875,0.44726563,-4.8828125E-4,0.89404297
17/07/11 05:05:09:734,2151,-0.73535156,0.042236328,0.58032227,-0.027669853,-0.05853238,-0.0042569004,0.017089844,0.4506836,0.0014648438,0.89208984
17/07/11 05:05:09:739,2156,-0.73535156,0.042236328,0.58032227,-0.027669853,-0.05853238,-0.0042569004,0.017089844,0.4506836,0.0014648438,0.89208984
17/07/11 05:05:09:744,2161,-0.73535156,0.042236328,0.58032227,-0.027669853,-0.05853238,-0.0042569004,0.017089844,0.4506836,0.0014648438,0.89208984
17/07/11 05:05:09:750,2167,-0.73535156,0.042236328,0.58032227,-0.027669853,-0.05853238,-0.0042569004,0.017089844,0.4506836,0.0014648438,0.89208984
17/07/11 05:05:09:755,2172,-0.73535156,0.042236328,0.58032227,-0.027669853,-0.05853238,-0.0042569004,0.017089844,0.4506836,0.0014648438,0.89208984
17/07/11 05:05:09:760,2177,-0.7609863,0.022705078,0.57128906,-0.03937633,-0.041504778,0.0021284502,0.018554688,0.4506836,0.001953125,0.89208984
17/07/11 05:05:09:766,2183,-0.72802734,-0.0061035156,0.6040039,-0.037247878,-0.04789013,0.0010642251,0.016113281,0.44873047,9.765625E-4,0.8930664
17/07/11 05:05:09:771,2188,-0.72802734,-0.0061035156,0.6040039,-0.037247878,-0.04789013,0.0010642251,0.016113281,0.44873047,9.765625E-4,0.8930664
17/07/11 05:05:09:777,2194,-0.7800293,0.035888672,0.5686035,-0.024477176,-0.051082805,0.009578026,0.014160156,0.44628906,0.0,0.89453125
17/07/11 05:05:09:783,2200,-0.7487793,0.007080078,0.57055664,-0.030862529,-0.051082805,-0.0021284502,0.016113281,0.44873047,9.765625E-4,0.8930664
17/07/11 05:05:09:788,2205,-0.7487793,0.007080078,0.57055664,-0.030862529,-0.051082805,-0.0021284502,0.016113281,0.44873047,9.765625E-4,0.8930664
17/07/11 05:05:09:793,2210,-0.7487793,0.007080078,0.57055664,-0.030862529,-0.051082805,-0.0021284502,0.016113281,0.44873047,9.765625E-4,0.8930664
17/07/11 05:05:09:798,2215,-0.7487793,0.007080078,0.57055664,-0.030862529,-0.051082805,-0.0021284502,0.016113281,0.44873047,9.765625E-4,0.8930664
17/07/11 05:05:09:804,2221,-0.7487793,0.007080078,0.57055664,-0.030862529,-0.051082805,-0.0021284502,0.016113281,0.44873047,9.765625E-4,0.8930664
17/07/11 05:05:09:809,2226,-0.7487793,0.007080078,0.57055664,-0.030862529,-0.051082805,-0.0021284502,0.016113281,0.44873047,9.765625E-4,0.8930664
17/07/11 05:05:09:814,2231,-0.7487793,0.007080078,0.57055664,-0.030862529,-0.051082805,-0.0021284502,0.016113281,0.44873047,9.765625E-4,0.8930664
17/07/11 05:05:09:819,2236,-0.77685547,0.056884766,0.54833984,-0.021284502,-0.048954353,0.010642251,0.0146484375,0.4477539,0.0,0.8935547
17/07/11 05:05:09:824,2241,-0.7631836,0.011474609,0.56274414,-0.032990977,-0.04363323,0.0063853506,0.018554688,0.44921875,0.001953125,0.8930664
17/07/11 05:05:09:829,2246,-0.7631836,0.011474609,0.56274414,-0.032990977,-0.04363323,0.0063853506,0.016601563,0.44726563,0.0014648438,0.89404297
17/07/11 05:05:09:835,2252,-0.78125,0.049560547,0.5578613,-0.030862529,-0.046825904,0.0074495757,0.015136719,0.4477539,4.8828125E-4,0.89404297
17/07/11 05:05:09:839,2256,-0.78125,0.049560547,0.5578613,-0.030862529,-0.046825904,0.0074495757,0.015136719,0.4477539,4.8828125E-4,0.89404297
17/07/11 05:05:09:844,2261,-0.7590332,0.020996094,0.560791,-0.040440552,-0.044697456,0.0042569004,0.016601563,0.44873047,9.765625E-4,0.8930664
17/07/11 05:05:09:849,2266,-0.7590332,0.020996094,0.560791,-0.040440552,-0.044697456,0.0042569004,0.016601563,0.44873047,9.765625E-4,0.8930664
17/07/11 05:05:09:854,2271,-0.75268555,0.030029297,0.5800781,-0.03511943,-0.040440552,0.0063853506,0.0146484375,0.44921875,0.0,0.8930664
17/07/11 05:05:09:859,2276,-0.75268555,0.030029297,0.5800781,-0.03511943,-0.040440552,0.0063853506,0.0146484375,0.44921875,0.0,0.8930664
17/07/11 05:05:09:864,2281,-0.75219727,0.015625,0.5917969,-0.03192675,-0.044697456,0.0042569004,0.015136719,0.4477539,4.8828125E-4,0.8935547
17/07/11 05:05:09:870,2287,-0.75219727,0.015625,0.5917969,-0.03192675,-0.044697456,0.0042569004,0.015136719,0.4477539,4.8828125E-4,0.8935547
17/07/11 05:05:09:874,2291,-0.7519531,-0.0029296875,0.56933594,-0.037247878,-0.04363323,0.0031926753,0.0146484375,0.44726563,4.8828125E-4,0.89404297
17/07/11 05:05:09:879,2296,-0.7519531,-0.0029296875,0.56933594,-0.037247878,-0.04363323,0.0031926753,0.0146484375,0.44726563,4.8828125E-4,0.89404297
17/07/11 05:05:09:885,2302,-0.7841797,0.030273438,0.5629883,-0.030862529,-0.046825904,0.0063853506,0.013183594,0.44726563,0.0,0.89404297
17/07/11 05:05:09:889,2306,-0.7841797,0.030273438,0.5629883,-0.030862529,-0.046825904,0.0063853506,0.013183594,0.44726563,0.0,0.89404297
17/07/11 05:05:09:894,2311,-0.7561035,0.03857422,0.56640625,-0.025541402,-0.05427548,0.0042569004,0.013671875,0.4482422,0.0,0.8935547
17/07/11 05:05:09:899,2316,-0.7561035,0.03857422,0.56640625,-0.025541402,-0.05427548,0.0042569004,0.013671875,0.4482422,0.0,0.8935547
17/07/11 05:05:09:904,2321,-0.782959,0.056152344,0.5776367,-0.034055203,-0.042569004,0.010642251,0.015136719,0.4482422,4.8828125E-4,0.8935547
17/07/11 05:05:09:909,2326,-0.782959,0.056152344,0.5776367,-0.034055203,-0.042569004,0.010642251,0.015136719,0.4482422,4.8828125E-4,0.8935547
17/07/11 05:05:09:914,2331,-0.7475586,0.02319336,0.5773926,-0.038312104,-0.044697456,-0.0,0.017089844,0.4482422,0.0014648438,0.8935547
17/07/11 05:05:09:919,2336,-0.7475586,0.02319336,0.5773926,-0.038312104,-0.044697456,-0.0,0.017089844,0.4482422,0.0014648438,0.8935547
17/07/11 05:05:09:924,2341,-0.7631836,0.01171875,0.57666016,-0.028734077,-0.05001858,0.0031926753,0.016601563,0.44677734,9.765625E-4,0.89404297
17/07/11 05:05:09:929,2346,-0.7631836,0.01171875,0.57666016,-0.028734077,-0.05001858,0.0031926753,0.016601563,0.44677734,9.765625E-4,0.89404297
17/07/11 05:05:09:935,2352,-0.77978516,0.036621094,0.5678711,-0.032990977,-0.042569004,0.0063853506,0.015625,0.44677734,4.8828125E-4,0.89404297
17/07/11 05:05:09:940,2357,-0.77978516,0.036621094,0.5678711,-0.032990977,-0.042569004,0.0063853506,0.015625,0.44677734,4.8828125E-4,0.89404297
17/07/11 05:05:09:945,2362,-0.7597656,0.008056641,0.5656738,-0.042569004,-0.04363323,0.0031926753,0.016601563,0.4482422,9.765625E-4,0.8935547
17/07/11 05:05:09:951,2368,-0.75,0.025878906,0.57299805,-0.030862529,-0.04789013,0.0063853506,0.0146484375,0.4482422,0.0,0.8935547
17/07/11 05:05:09:957,2374,-0.75,0.025878906,0.57299805,-0.030862529,-0.04789013,0.0063853506,0.0146484375,0.4482422,0.0,0.8935547
17/07/11 05:05:09:962,2379,-0.75097656,0.048583984,0.5756836,-0.03192675,-0.042569004,0.0074495757,0.0146484375,0.44677734,0.0,0.89453125
17/07/11 05:05:09:967,2384,-0.75097656,0.048583984,0.5756836,-0.03192675,-0.042569004,0.0074495757,0.0146484375,0.44677734,0.0,0.89453125
17/07/11 05:05:09:972,2389,-0.7636719,0.0041503906,0.5739746,-0.04576168,-0.03937633,0.0074495757,0.0146484375,0.44677734,0.0,0.89453125
17/07/11 05:05:09:977,2394,-0.7636719,0.0041503906,0.5739746,-0.04576168,-0.03937633,0.0074495757,0.016113281,0.44628906,9.765625E-4,0.89453125
17/07/11 05:05:09:983,2400,-0.7636719,0.0041503906,0.5739746,-0.04576168,-0.03937633,0.0074495757,0.016113281,0.44628906,9.765625E-4,0.89453125
17/07/11 05:05:09:988,2405,-0.7636719,0.0041503906,0.5739746,-0.04576168,-0.03937633,0.0074495757,0.016113281,0.44628906,9.765625E-4,0.89453125
17/07/11 05:05:09:993,2410,-0.7636719,0.0041503906,0.5739746,-0.04576168,-0.03937633,0.0074495757,0.016113281,0.44628906,9.765625E-4,0.89453125
17/07/11 05:05:09:999,2416,-0.7636719,0.0041503906,0.5739746,-0.04576168,-0.03937633,0.0074495757,0.016113281,0.44628906,9.765625E-4,0.89453125
17/07/11 05:05:10:005,2422,-0.7717285,0.043945313,0.5588379,-0.030862529,-0.03937633,0.009578026,0.016113281,0.44628906,0.0,0.89453125
17/07/11 05:05:10:010,2427,-0.7717285,0.043945313,0.5588379,-0.030862529,-0.03937633,0.009578026,0.0146484375,0.44628906,0.0,0.89453125
17/07/11 05:05:10:015,2432,-0.7705078,0.024658203,0.576416,-0.023412952,-0.04789013,0.011706476,0.0126953125,0.44677734,0.0,0.89404297
17/07/11 05:05:10:021,2438,-0.7705078,0.024658203,0.576416,-0.023412952,-0.04789013,0.011706476,0.0126953125,0.44677734,0.0,0.89404297
17/07/11 05:05:10:026,2443,-0.7519531,0.012451172,0.5812988,-0.03192675,-0.053211257,0.0021284502,0.016113281,0.4482422,9.765625E-4,0.8935547
17/07/11 05:05:10:031,2448,-0.7519531,0.012451172,0.5812988,-0.03192675,-0.053211257,0.0021284502,0.016113281,0.4482422,9.765625E-4,0.8935547
17/07/11 05:05:10:036,2453,-0.7519531,0.012451172,0.5812988,-0.03192675,-0.053211257,0.0021284502,0.016113281,0.4482422,9.765625E-4,0.8935547
17/07/11 05:05:10:041,2458,-0.7519531,0.012451172,0.5812988,-0.03192675,-0.053211257,0.0021284502,0.016113281,0.4482422,9.765625E-4,0.8935547
17/07/11 05:05:10:046,2463,-0.7519531,0.012451172,0.5812988,-0.03192675,-0.053211257,0.0021284502,0.016113281,0.4482422,9.765625E-4,0.8935547
17/07/11 05:05:10:051,2468,-0.7519531,0.012451172,0.5812988,-0.03192675,-0.053211257,0.0021284502,0.016113281,0.4482422,9.765625E-4,0.8935547
17/07/11 05:05:10:058,2475,-0.78222656,0.037841797,0.5637207,-0.03511943,-0.04576168,0.0074495757,0.015136719,0.44726563,4.8828125E-4,0.89404297
17/07/11 05:05:10:063,2480,-0.76953125,0.025634766,0.56933594,-0.04363323,-0.036183655,0.0031926753,0.017578125,0.44726563,0.0014648438,0.89404297
17/07/11 05:05:10:068,2485,-0.76953125,0.025634766,0.56933594,-0.04363323,-0.036183655,0.0031926753,0.017578125,0.44726563,0.0014648438,0.89404297
17/07/11 05:05:10:073,2490,-0.76953125,0.025634766,0.56933594,-0.04363323,-0.036183655,0.0031926753,0.017578125,0.44726563,0.0014648438,0.89404297
17/07/11 05:05:10:079,2496,-0.76953125,0.025634766,0.56933594,-0.04363323,-0.036183655,0.0031926753,0.017578125,0.44726563,0.0014648438,0.89404297
17/07/11 05:05:10:084,2501,-0.76953125,0.025634766,0.56933594,-0.04363323,-0.036183655,0.0031926753,0.017578125,0.44726563,0.0014648438,0.89404297
17/07/11 05:05:10:089,2506,-0.76953125,0.025634766,0.56933594,-0.04363323,-0.036183655,0.0031926753,0.017578125,0.44726563,0.0014648438,0.89404297
17/07/11 05:05:10:095,2512,-0.76953125,0.025634766,0.56933594,-0.04363323,-0.036183655,0.0031926753,0.017578125,0.44726563,0.0014648438,0.89404297
17/07/11 05:05:10:101,2518,-0.75927734,0.036376953,0.5703125,-0.040440552,-0.042569004,0.0021284502,0.017089844,0.4477539,0.0014648438,0.89404297
17/07/11 05:05:10:106,2523,-0.7524414,0.021728516,0.5871582,-0.041504778,-0.042569004,0.0021284502,0.017578125,0.44726563,0.0014648438,0.89404297
17/07/11 05:05:10:111,2528,-0.7524414,0.021728516,0.5871582,-0.041504778,-0.042569004,0.0021284502,0.017578125,0.44726563,0.0014648438,0.89404297
17/07/11 05:05:10:116,2533,-0.74560547,0.033203125,0.5847168,-0.046825904,-0.029798303,-0.0021284502,0.017089844,0.44580078,0.0014648438,0.89453125
17/07/11 05:05:10:121,2538,-0.7961426,-0.0063476563,0.548584,-0.03511943,-0.048954353,0.008513801,0.017089844,0.44580078,0.0014648438,0.89453125
17/07/11 05:05:10:126,2543,-0.7961426,-0.0063476563,0.548584,-0.03511943,-0.048954353,0.008513801,0.017089844,0.4453125,0.0014648438,0.89501953
17/07/11 05:05:10:131,2548,-0.75927734,0.024902344,0.5661621,-0.022348728,-0.05427548,0.0021284502,0.017089844,0.4453125,0.0014648438,0.89501953
17/07/11 05:05:10:136,2553,-0.75927734,0.024902344,0.5661621,-0.022348728,-0.05427548,0.0021284502,0.0146484375,0.4477539,4.8828125E-4,0.89404297
17/07/11 05:05:10:142,2559,-0.71655273,0.0087890625,0.60546875,-0.059596606,-0.029798303,-0.0042569004,0.0146484375,0.4477539,4.8828125E-4,0.89404297
17/07/11 05:05:10:147,2564,-0.71655273,0.0087890625,0.60546875,-0.059596606,-0.029798303,-0.0042569004,0.01171875,0.44921875,-4.8828125E-4,0.8930664
17/07/11 05:05:10:152,2569,-0.8022461,-0.015380859,0.5383301,-0.03937633,-0.044697456,0.013834926,0.01171875,0.44921875,-4.8828125E-4,0.8930664
17/07/11 05:05:10:158,2575,-0.8022461,-0.015380859,0.5383301,-0.03937633,-0.044697456,0.013834926,0.011230469,0.44628906,-9.765625E-4,0.89453125
17/07/11 05:05:10:163,2580,-0.7751465,0.12426758,0.56274414,0.013834926,-0.071303084,-0.0,0.011230469,0.44628906,-9.765625E-4,0.89453125
17/07/11 05:05:10:168,2585,-0.7751465,0.12426758,0.56274414,0.013834926,-0.071303084,-0.0,0.0078125,0.45166016,-0.0024414063,0.89208984
17/07/11 05:05:10:173,2590,-0.73583984,-2.4414063E-4,0.5732422,-0.044697456,-0.04576168,-0.0,0.015136719,0.45166016,4.8828125E-4,0.89160156
17/07/11 05:05:10:178,2595,-0.73583984,-2.4414063E-4,0.5732422,-0.044697456,-0.04576168,-0.0,0.015136719,0.45166016,4.8828125E-4,0.89160156
17/07/11 05:05:10:183,2600,-0.79663086,0.012939453,0.5449219,-0.036183655,-0.03511943,0.025541402,0.0107421875,0.44726563,-9.765625E-4,0.89404297
17/07/11 05:05:10:188,2605,-0.79663086,0.012939453,0.5449219,-0.036183655,-0.03511943,0.025541402,0.0107421875,0.44726563,-9.765625E-4,0.89404297
17/07/11 05:05:10:193,2610,-0.79663086,0.012939453,0.5449219,-0.036183655,-0.03511943,0.025541402,0.0107421875,0.44726563,-9.765625E-4,0.89404297
17/07/11 05:05:10:198,2615,-0.79663086,0.012939453,0.5449219,-0.036183655,-0.03511943,0.025541402,0.0107421875,0.44726563,-9.765625E-4,0.89404297
17/07/11 05:05:10:203,2620,-0.79663086,0.012939453,0.5449219,-0.036183655,-0.03511943,0.025541402,0.0107421875,0.44726563,-9.765625E-4,0.89404297
17/07/11 05:05:10:212,2629,-0.79663086,0.012939453,0.5449219,-0.036183655,-0.03511943,0.025541402,0.0107421875,0.44726563,-9.765625E-4,0.89404297
17/07/11 05:05:10:217,2634,-0.7290039,0.099365234,0.6032715,-0.0031926753,-0.05214703,0.010642251,0.0107421875,0.4501953,-0.0014648438,0.8925781
17/07/11 05:05:10:222,2639,-0.6923828,0.02758789,0.60546875,-0.028734077,-0.037247878,-0.0021284502,0.015625,0.44384766,4.8828125E-4,0.8955078
17/07/11 05:05:10:227,2644,-0.6923828,0.02758789,0.60546875,-0.028734077,-0.037247878,-0.0021284502,0.014160156,0.44335938,0.0,0.8959961
17/07/11 05:05:10:232,2649,-0.6923828,0.02758789,0.60546875,-0.028734077,-0.037247878,-0.0021284502,0.014160156,0.44335938,0.0,0.8959961
17/07/11 05:05:10:237,2654,-0.8105469,0.009277344,0.56591797,-0.038312104,-0.03511943,0.014899151,0.014160156,0.44091797,0.0,0.89746094
17/07/11 05:05:10:243,2660,-0.7702637,0.008544922,0.5756836,-0.03937633,-0.040440552,-0.023412952,0.012207031,0.44628906,-4.8828125E-4,0.89453125
17/07/11 05:05:10:248,2665,-0.7702637,0.008544922,0.5756836,-0.03937633,-0.040440552,-0.023412952,0.012207031,0.44628906,-4.8828125E-4,0.89453125
17/07/11 05:05:10:254,2671,-1.0866699,0.03515625,0.6345215,-0.027669853,-0.06278928,-0.061725058,0.0107421875,0.44628906,-9.765625E-4,0.89453125
17/07/11 05:05:10:259,2676,-1.0866699,0.03515625,0.6345215,-0.027669853,-0.06278928,-0.061725058,0.0107421875,0.44628906,-9.765625E-4,0.89453125
17/07/11 05:05:10:265,2682,-1.0664063,-0.021484375,0.48828125,-0.048954353,-0.05214703,-0.5129565,0.01171875,0.45751953,-9.765625E-4,0.88916016
17/07/11 05:05:10:270,2687,-1.0664063,-0.021484375,0.48828125,-0.048954353,-0.05214703,-0.5129565,0.01171875,0.45751953,-9.765625E-4,0.88916016
17/07/11 05:05:10:275,2692,-1.1911621,-0.020019531,0.5378418,-0.051082805,-0.044697456,-1.0014359,0.010253906,0.46044922,-0.0014648438,0.88720703
17/07/11 05:05:10:280,2697,-1.1911621,-0.020019531,0.5378418,-0.051082805,-0.044697456,-1.0014359,0.010253906,0.46044922,-0.0014648438,0.88720703
17/07/11 05:05:10:285,2702,-1.0751953,-0.0031738281,0.56103516,-0.032990977,-0.057468154,-1.5686678,0.009277344,0.46191406,-0.001953125,0.88671875
17/07/11 05:05:10:290,2707,-1.0751953,-0.0031738281,0.56103516,-0.032990977,-0.057468154,-1.5686678,0.009277344,0.46191406,-0.001953125,0.88671875
17/07/11 05:05:10:295,2712,-1.0124512,0.048095703,0.60839844,0.029798303,-0.16282643,-1.9869083,0.0087890625,0.46044922,-0.0024414063,0.8876953
17/07/11 05:05:10:300,2717,-1.0124512,0.048095703,0.60839844,0.029798303,-0.16282643,-1.9869083,0.0087890625,0.46044922,-0.0024414063,0.8876953
17/07/11 05:05:10:308,2725,-1.0124512,0.048095703,0.60839844,0.029798303,-0.16282643,-1.9869083,0.0087890625,0.46044922,-0.0024414063,0.8876953
17/07/11 05:05:10:313,2730,-1.0124512,0.048095703,0.60839844,0.029798303,-0.16282643,-1.9869083,0.0087890625,0.46044922,-0.0024414063,0.8876953
17/07/11 05:05:10:318,2735,-1.0124512,0.048095703,0.60839844,0.029798303,-0.16282643,-1.9869083,0.0087890625,0.46044922,-0.0024414063,0.8876953
17/07/11 05:05:10:323,2740,-1.0124512,0.048095703,0.60839844,0.029798303,-0.16282643,-1.9869083,0.0087890625,0.46044922,-0.0024414063,0.8876953
17/07/11 05:05:10:328,2745,-0.89160156,0.08666992,0.66064453,-0.0063853506,-0.17027602,-2.4764519,0.009765625,0.45410156,-0.0029296875,0.890625
17/07/11 05:05:10:334,2751,-0.9255371,-0.056640625,0.47998047,-0.12238589,-0.051082805,-3.1990607,0.016113281,0.4345703,-4.8828125E-4,0.9003906
17/07/11 05:05:10:339,2756,-0.83618164,-0.009521484,0.5957031,0.009578026,0.021284502,-3.602402,0.013671875,0.42578125,-0.0014648438,0.90478516
17/07/11 05:05:10:344,2761,-0.8371582,0.13232422,0.59399414,0.018091828,0.057468154,-3.9088988,0.01171875,0.41503906,-0.0029296875,0.90966797
17/07/11 05:05:10:349,2766,-0.8371582,0.13232422,0.59399414,0.018091828,0.057468154,-3.9088988,0.01171875,0.41503906,-0.0029296875,0.90966797
17/07/11 05:05:10:354,2771,-0.8239746,0.04711914,0.6008301,-0.079816885,0.051082805,-4.2430654,0.016601563,0.4013672,-4.8828125E-4,0.91552734
17/07/11 05:05:10:359,2776,-0.8239746,0.04711914,0.6008301,-0.079816885,0.051082805,-4.2430654,0.016601563,0.4013672,-4.8828125E-4,0.91552734
17/07/11 05:05:10:365,2782,-0.7512207,-0.018310547,0.6123047,-0.079816885,0.065981954,-4.652792,0.017089844,0.38476563,-4.8828125E-4,0.92285156
17/07/11 05:05:10:371,2788,-0.7512207,-0.018310547,0.6123047,-0.079816885,0.065981954,-4.652792,0.017089844,0.38476563,-4.8828125E-4,0.92285156
17/07/11 05:05:10:376,2793,-0.72509766,0.0053710938,0.6345215,-0.06066083,0.083009556,-5.0242066,0.015625,0.36621094,-9.765625E-4,0.9301758
17/07/11 05:05:10:381,2798,-0.72509766,0.0053710938,0.6345215,-0.06066083,0.083009556,-5.0242066,0.015625,0.36621094,-9.765625E-4,0.9301758
17/07/11 05:05:10:386,2803,-0.66015625,-0.00390625,0.59594727,-0.06917463,0.029798303,-5.31474,0.015625,0.34423828,-4.8828125E-4,0.93847656
17/07/11 05:05:10:391,2808,-0.66015625,-0.00390625,0.59594727,-0.06917463,0.029798303,-5.31474,0.015625,0.34423828,-4.8828125E-4,0.93847656
17/07/11 05:05:10:396,2813,-0.66015625,-0.00390625,0.59594727,-0.06917463,0.029798303,-5.31474,0.015625,0.34423828,-4.8828125E-4,0.93847656
17/07/11 05:05:10:401,2818,-0.66015625,-0.00390625,0.59594727,-0.06917463,0.029798303,-5.31474,0.015625,0.34423828,-4.8828125E-4,0.93847656
17/07/11 05:05:10:406,2823,-0.66015625,-0.00390625,0.59594727,-0.06917463,0.029798303,-5.31474,0.015625,0.34423828,-4.8828125E-4,0.93847656
17/07/11 05:05:10:412,2829,-0.66015625,-0.00390625,0.59594727,-0.06917463,0.029798303,-5.31474,0.015625,0.34423828,-4.8828125E-4,0.93847656
17/07/11 05:05:10:417,2834,-0.6020508,0.011230469,0.6105957,-0.07768843,0.065981954,-5.6042094,0.0146484375,0.32226563,-9.765625E-4,0.94628906
17/07/11 05:05:10:422,2839,-0.48388672,0.045166016,0.6364746,-0.065981954,0.055339705,-6.155478,0.0146484375,0.27441406,-9.765625E-4,0.9614258
17/07/11 05:05:10:427,2844,-0.41357422,0.043701172,0.6088867,-0.06491773,0.032990977,-6.480067,0.015625,0.2475586,-4.8828125E-4,0.96875
17/07/11 05:05:10:433,2850,-0.3071289,0.029052734,0.5957031,-0.0638535,0.03937633,-6.817426,0.016601563,0.21972656,-4.8828125E-4,0.97509766
17/07/11 05:05:10:438,2855,-0.3071289,0.029052734,0.5957031,-0.0638535,0.03937633,-6.817426,0.016601563,0.21972656,-4.8828125E-4,0.97509766
17/07/11 05:05:10:443,2860,-0.3071289,0.029052734,0.5957031,-0.0638535,0.03937633,-6.817426,0.016601563,0.21972656,-4.8828125E-4,0.97509766
17/07/11 05:05:10:448,2865,-0.3071289,0.029052734,0.5957031,-0.0638535,0.03937633,-6.817426,0.016601563,0.21972656,-4.8828125E-4,0.97509766
17/07/11 05:05:10:453,2870,-0.3071289,0.029052734,0.5957031,-0.0638535,0.03937633,-6.817426,0.016601563,0.21972656,-4.8828125E-4,0.97509766
17/07/11 05:05:10:458,2875,-0.3071289,0.029052734,0.5957031,-0.0638535,0.03937633,-6.817426,0.016601563,0.21972656,-4.8828125E-4,0.97509766
17/07/11 05:05:10:463,2880,-0.3071289,0.029052734,0.5957031,-0.0638535,0.03937633,-6.817426,0.016601563,0.21972656,-4.8828125E-4,0.97509766
17/07/11 05:05:10:468,2885,-0.17553711,0.015380859,0.59106445,-0.0638535,0.029798303,-7.0292068,0.018554688,0.19335938,0.0,0.98095703
17/07/11 05:05:10:473,2890,0.08178711,0.08276367,0.5209961,-0.083009556,0.025541402,-7.762458,0.013183594,0.08203125,-0.0014648438,0.99658203
17/07/11 05:05:10:478,2895,0.08178711,0.08276367,0.5209961,-0.083009556,0.025541402,-7.762458,0.013183594,0.08203125,-0.0014648438,0.99658203
17/07/11 05:05:10:484,2901,0.08178711,0.08276367,0.5209961,-0.083009556,0.025541402,-7.762458,0.013183594,0.08203125,-0.0014648438,0.99658203
17/07/11 05:05:10:488,2905,0.08178711,0.08276367,0.5209961,-0.083009556,0.025541402,-7.762458,0.013183594,0.08203125,-0.0014648438,0.99658203
17/07/11 05:05:10:493,2910,0.08178711,0.08276367,0.5209961,-0.083009556,0.025541402,-7.762458,0.013183594,0.08203125,-0.0014648438,0.99658203
17/07/11 05:05:10:498,2915,0.08178711,0.08276367,0.5209961,-0.083009556,0.025541402,-7.762458,0.013183594,0.08203125,-0.0014648438,0.99658203
17/07/11 05:05:10:503,2920,0.08178711,0.08276367,0.5209961,-0.083009556,0.025541402,-7.762458,0.013183594,0.08203125,-0.0014648438,0.99658203
17/07/11 05:05:10:508,2925,0.17749023,0.022705078,0.51708984,-0.10642251,0.026605628,-7.884844,0.019042969,0.028808594,-9.765625E-4,0.9995117
17/07/11 05:05:10:513,2930,0.17749023,0.022705078,0.51708984,-0.10642251,0.026605628,-7.884844,0.019042969,0.028808594,-9.765625E-4,0.9995117
17/07/11 05:05:10:518,2935,0.17749023,0.022705078,0.51708984,-0.10642251,0.026605628,-7.884844,0.019042969,0.028808594,-9.765625E-4,0.9995117
17/07/11 05:05:10:523,2940,0.17749023,0.022705078,0.51708984,-0.10642251,0.026605628,-7.884844,0.019042969,0.028808594,-9.765625E-4,0.9995117
17/07/11 05:05:10:528,2945,0.17749023,0.022705078,0.51708984,-0.10642251,0.026605628,-7.884844,0.019042969,0.028808594,-9.765625E-4,0.9995117
17/07/11 05:05:10:533,2950,0.17749023,0.022705078,0.51708984,-0.10642251,0.026605628,-7.884844,0.019042969,0.028808594,-9.765625E-4,0.9995117
17/07/11 05:05:10:538,2955,0.17749023,0.022705078,0.51708984,-0.10642251,0.026605628,-7.884844,0.019042969,0.028808594,-9.765625E-4,0.9995117
17/07/11 05:05:10:543,2960,0.17749023,0.022705078,0.51708984,-0.10642251,0.026605628,-7.884844,0.019042969,0.028808594,-9.765625E-4,0.9995117
17/07/11 05:05:10:548,2965,0.9814453,-0.05078125,0.3876953,-0.09365181,-0.088330686,-7.734788,0.016113281,-0.24414063,-0.00390625,0.9692383
17/07/11 05:05:10:553,2970,0.9814453,-0.05078125,0.3876953,-0.09365181,-0.088330686,-7.734788,0.016113281,-0.24414063,-0.00390625,0.9692383
17/07/11 05:05:10:558,2975,0.9321289,0.018310547,0.35986328,-0.07768843,-0.037247878,-7.2537584,0.014160156,-0.29492188,-0.00390625,0.9555664
17/07/11 05:05:10:563,2980,0.8979492,0.05053711,0.328125,-0.044697456,0.03937633,-6.8951144,0.013671875,-0.33203125,-0.0043945313,0.9428711
17/07/11 05:05:10:569,2986,0.8979492,0.05053711,0.328125,-0.044697456,0.03937633,-6.8951144,0.013671875,-0.33203125,-0.0043945313,0.9428711
17/07/11 05:05:10:574,2991,0.91796875,0.12963867,0.2697754,-0.0042569004,0.07768843,-6.6588564,0.013671875,-0.3671875,-0.0048828125,0.9296875
17/07/11 05:05:10:579,2996,0.91796875,0.12963867,0.2697754,-0.0042569004,0.07768843,-6.6588564,0.013671875,-0.3671875,-0.0048828125,0.9296875
17/07/11 05:05:10:584,3001,0.88623047,0.020019531,0.21386719,-0.051082805,0.05427548,-6.485388,0.0146484375,-0.4038086,-0.0048828125,0.9145508
17/07/11 05:05:10:591,3008,0.9501953,-0.02734375,0.20141602,-0.0638535,0.028734077,-6.3906717,0.0146484375,-0.4038086,-0.0048828125,0.9145508
17/07/11 05:05:10:596,3013,0.9501953,-0.02734375,0.20141602,-0.0638535,0.028734077,-6.3906717,0.014160156,-0.43896484,-0.0048828125,0.8984375
17/07/11 05:05:10:601,3018,1.0222168,0.013183594,0.15185547,-0.03192675,0.037247878,-6.2374234,0.013183594,-0.46972656,-0.0048828125,0.8823242
17/07/11 05:05:10:606,3023,1.0222168,0.013183594,0.15185547,-0.03192675,0.037247878,-6.2374234,0.013183594,-0.46972656,-0.0048828125,0.8823242
17/07/11 05:05:10:611,3028,1.0966797,0.031982422,0.12768555,-0.036183655,0.032990977,-6.0479913,0.013183594,-0.49951172,-0.0048828125,0.86621094
17/07/11 05:05:10:616,3033,1.0966797,0.031982422,0.12768555,-0.036183655,0.032990977,-6.0479913,0.013183594,-0.49951172,-0.0048828125,0.86621094
17/07/11 05:05:10:621,3038,1.0966797,0.031982422,0.12768555,-0.036183655,0.032990977,-6.0479913,0.013183594,-0.49951172,-0.0048828125,0.86621094
17/07/11 05:05:10:627,3044,1.0966797,0.031982422,0.12768555,-0.036183655,0.032990977,-6.0479913,0.013183594,-0.49951172,-0.0048828125,0.86621094
17/07/11 05:05:10:632,3049,1.0966797,0.031982422,0.12768555,-0.036183655,0.032990977,-6.0479913,0.013183594,-0.49951172,-0.0048828125,0.86621094
17/07/11 05:05:10:637,3054,1.0966797,0.031982422,0.12768555,-0.036183655,0.032990977,-6.0479913,0.013183594,-0.49951172,-0.0048828125,0.86621094
17/07/11 05:05:10:642,3059,1.0966797,0.031982422,0.12768555,-0.036183655,0.032990977,-6.0479913,0.013183594,-0.49951172,-0.0048828125,0.86621094
17/07/11 05:05:10:647,3064,1.189209,0.034179688,0.064453125,-0.06491773,0.0042569004,-5.782999,0.0126953125,-0.52783203,-0.0048828125,0.8491211
17/07/11 05:05:10:652,3069,1.2312012,-0.047607422,0.02319336,-0.080881104,-0.0021284502,-4.553819,0.01171875,-0.5810547,-0.0053710938,0.81347656
17/07/11 05:05:10:657,3074,1.2312012,-0.047607422,0.02319336,-0.080881104,-0.0021284502,-4.553819,0.011230469,-0.6020508,-0.0053710938,0.79785156
17/07/11 05:05:10:662,3079,1.2312012,-0.047607422,0.02319336,-0.080881104,-0.0021284502,-4.553819,0.011230469,-0.6020508,-0.0053710938,0.79785156
17/07/11 05:05:10:667,3084,1.1843262,-0.001953125,-0.00390625,-0.06917463,-0.0063853506,-4.193047,0.010253906,-0.6220703,-0.0048828125,0.78271484
17/07/11 05:05:10:672,3089,1.1843262,-0.001953125,-0.00390625,-0.06917463,-0.0063853506,-4.193047,0.010253906,-0.6220703,-0.0048828125,0.78271484
17/07/11 05:05:10:677,3094,1.1960449,0.0234375,-0.037353516,-0.059596606,-0.010642251,-3.9099631,0.009765625,-0.640625,-0.0048828125,0.7675781
17/07/11 05:05:10:682,3099,1.2038574,0.025634766,-0.053955078,-0.061725058,-0.011706476,-3.621558,0.009277344,-0.65625,-0.0048828125,0.75439453
17/07/11 05:05:10:687,3104,1.2038574,0.025634766,-0.053955078,-0.061725058,-0.011706476,-3.621558,0.009277344,-0.65625,-0.0048828125,0.75439453
17/07/11 05:05:10:692,3109,1.310791,0.0126953125,-0.060302734,-0.0638535,-0.012770701,-3.3171897,0.009277344,-0.6699219,-0.0053710938,0.7421875
17/07/11 05:05:10:697,3114,1.310791,0.0126953125,-0.060302734,-0.0638535,-0.012770701,-3.3171897,0.009277344,-0.6699219,-0.0053710938,0.7421875
17/07/11 05:05:10:702,3119,1.2104492,-9.765625E-4,-0.08203125,-0.051082805,-0.0074495757,-2.8691509,0.0087890625,-0.68603516,-0.0048828125,0.72753906
17/07/11 05:05:10:707,3124,1.2104492,-9.765625E-4,-0.08203125,-0.051082805,-0.0074495757,-2.8691509,0.0087890625,-0.68603516,-0.0048828125,0.72753906
17/07/11 05:05:10:712,3129,1.2104492,-9.765625E-4,-0.08203125,-0.051082805,-0.0074495757,-2.8691509,0.0087890625,-0.68603516,-0.0048828125,0.72753906
17/07/11 05:05:10:717,3134,1.263916,0.020751953,-0.09423828,-0.042569004,-0.012770701,-2.5456264,0.0078125,-0.7001953,-0.0043945313,0.7138672
17/07/11 05:05:10:722,3139,1.2036133,0.0053710938,-0.10961914,-0.042569004,-0.009578026,-2.1805973,0.0073242188,-0.7109375,-0.0043945313,0.703125
17/07/11 05:05:10:727,3144,1.2036133,0.0053710938,-0.10961914,-0.042569004,-0.009578026,-2.1805973,0.0073242188,-0.7109375,-0.0043945313,0.703125
17/07/11 05:05:10:732,3149,1.2036133,0.0053710938,-0.10961914,-0.042569004,-0.009578026,-2.1805973,0.0073242188,-0.7109375,-0.0043945313,0.703125
17/07/11 05:05:10:738,3155,1.2397461,-0.016845703,-0.12109375,-0.025541402,-0.0042569004,-1.8762288,0.0068359375,-0.72021484,-0.00390625,0.6933594
17/07/11 05:05:10:744,3161,1.2773438,0.0,-0.13647461,0.046825904,0.028734077,-1.5622824,0.0063476563,-0.72753906,-0.0034179688,0.68603516
17/07/11 05:05:10:750,3167,1.2773438,0.0,-0.13647461,0.046825904,0.028734077,-1.5622824,0.0063476563,-0.72753906,-0.0034179688,0.68603516
17/07/11 05:05:10:755,3172,1.3405762,0.040039063,-0.083496094,0.023412952,0.042569004,-1.1834183,0.005859375,-0.73339844,-0.0024414063,0.6791992
17/07/11 05:05:10:760,3177,1.3405762,0.040039063,-0.083496094,0.023412952,0.042569004,-1.1834183,0.005859375,-0.73339844,-0.0024414063,0.6791992
17/07/11 05:05:10:765,3182,1.3916016,0.028076172,-0.12866211,-0.020220276,0.025541402,-0.65981954,0.0078125,-0.73583984,-0.00390625,0.6767578
17/07/11 05:05:10:771,3188,1.3916016,0.028076172,-0.12866211,-0.020220276,0.025541402,-0.65981954,0.0078125,-0.73583984,-0.00390625,0.6767578
17/07/11 05:05:10:777,3194,1.3752441,0.0043945313,-0.16430664,-0.030862529,0.0063853506,-0.032990977,0.008300781,-0.7397461,-0.0043945313,0.67285156
17/07/11 05:05:10:783,3200,1.3752441,0.0043945313,-0.16430664,-0.030862529,0.0063853506,-0.032990977,0.008300781,-0.7397461,-0.0043945313,0.67285156
17/07/11 05:05:10:788,3205,1.6066895,-0.0043945313,-0.11791992,-0.027669853,0.024477176,0.5310483,0.0073242188,-0.7402344,-0.0034179688,0.671875
17/07/11 05:05:10:793,3210,1.4758301,0.013183594,-0.12573242,-0.019156052,0.009578026,1.4505388,0.001953125,-0.7314453,0.001953125,0.6816406
17/07/11 05:05:10:798,3215,1.4758301,0.013183594,-0.12573242,-0.019156052,0.009578026,1.4505388,0.001953125,-0.7314453,0.001953125,0.6816406
17/07/11 05:05:10:803,3220,1.4758301,0.013183594,-0.12573242,-0.019156052,0.009578026,1.4505388,0.001953125,-0.7314453,0.001953125,0.6816406
17/07/11 05:05:10:808,3225,1.4758301,0.013183594,-0.12573242,-0.019156052,0.009578026,1.4505388,0.001953125,-0.7314453,0.001953125,0.6816406
17/07/11 05:05:10:813,3230,1.4758301,0.013183594,-0.12573242,-0.019156052,0.009578026,1.4505388,0.001953125,-0.7314453,0.001953125,0.6816406
17/07/11 05:05:10:818,3235,1.4758301,0.013183594,-0.12573242,-0.019156052,0.009578026,1.4505388,0.001953125,-0.7314453,0.001953125,0.6816406
17/07/11 05:05:10:823,3240,1.4758301,0.013183594,-0.12573242,-0.019156052,0.009578026,1.4505388,0.001953125,-0.7314453,0.001953125,0.6816406
17/07/11 05:05:10:828,3245,1.3725586,-0.033203125,-0.119384766,-0.030862529,0.036183655,2.15612,0.00390625,-0.72998047,0.0,0.68359375
17/07/11 05:05:10:833,3250,1.1711426,0.029296875,-0.096191406,0.048954353,-0.088330686,3.0990236,9.765625E-4,-0.7192383,0.0034179688,0.6948242
17/07/11 05:05:10:838,3255,1.1940918,0.05419922,-0.048095703,0.019156052,-0.07662421,3.3342173,0.0024414063,-0.70996094,0.0024414063,0.70410156
17/07/11 05:05:10:843,3260,1.1940918,0.05419922,-0.048095703,0.019156052,-0.07662421,3.3342173,0.0024414063,-0.70996094,4.8828125E-4,0.71484375
17/07/11 05:05:10:848,3265,1.1899414,0.025634766,-0.057373047,-0.03511943,-0.05001858,3.560897,0.0048828125,-0.69921875,4.8828125E-4,0.71484375
17/07/11 05:05:10:853,3270,1.1899414,0.025634766,-0.057373047,-0.03511943,-0.05001858,3.560897,0.0048828125,-0.69921875,4.8828125E-4,0.71484375
17/07/11 05:05:10:859,3276,1.1899414,0.025634766,-0.057373047,-0.03511943,-0.05001858,3.560897,0.0048828125,-0.69921875,4.8828125E-4,0.71484375
17/07/11 05:05:10:865,3282,1.1899414,0.025634766,-0.057373047,-0.03511943,-0.05001858,3.560897,0.0048828125,-0.69921875,4.8828125E-4,0.71484375
17/07/11 05:05:10:871,3288,1.1899414,0.025634766,-0.057373047,-0.03511943,-0.05001858,3.560897,0.0048828125,-0.69921875,4.8828125E-4,0.71484375
17/07/11 05:05:10:876,3293,1.1987305,-0.014160156,-0.08081055,0.0,-0.109615184,3.8961282,0.0048828125,-0.6870117,4.8828125E-4,0.7260742
17/07/11 05:05:10:881,3298,1.1987305,-0.014160156,-0.08081055,0.0,-0.109615184,3.8961282,0.0048828125,-0.6870117,4.8828125E-4,0.7260742
17/07/11 05:05:10:886,3303,1.5429688,-0.2956543,-0.40551758,-0.29585457,-0.25222135,4.7209024,0.021972656,-0.6435547,-0.0063476563,0.7651367
17/07/11 05:05:10:891,3308,1.302002,-0.13549805,-0.06713867,-0.06704618,-0.11067941,5.5627046,0.012207031,-0.6435547,-0.0063476563,0.7651367
17/07/11 05:05:10:896,3313,1.2099609,0.036132813,0.05493164,-0.013834926,-0.118128985,6.0064864,0.0029296875,-0.63916016,0.001953125,0.76904297
17/07/11 05:05:10:901,3318,1.2099609,0.036132813,0.05493164,-0.013834926,-0.118128985,6.0064864,0.0029296875,-0.63916016,0.001953125,0.76904297
17/07/11 05:05:10:906,3323,1.2099609,0.036132813,0.05493164,-0.013834926,-0.118128985,6.0064864,0.0029296875,-0.63916016,0.001953125,0.76904297
17/07/11 05:05:10:911,3328,1.2099609,0.036132813,0.05493164,-0.013834926,-0.118128985,6.0064864,0.0029296875,-0.63916016,0.001953125,0.76904297
17/07/11 05:05:10:916,3333,1.2099609,0.036132813,0.05493164,-0.013834926,-0.118128985,6.0064864,0.0029296875,-0.63916016,0.001953125,0.76904297
17/07/11 05:05:10:921,3338,1.2099609,0.036132813,0.05493164,-0.013834926,-0.118128985,6.0064864,0.0029296875,-0.63916016,0.001953125,0.76904297
17/07/11 05:05:10:926,3343,1.2099609,0.036132813,0.05493164,-0.013834926,-0.118128985,6.0064864,0.0048828125,-0.625,0.0,0.7807617
17/07/11 05:05:10:931,3348,0.95166016,0.03857422,0.1159668,-0.0042569004,-0.094716035,6.6290584,0.0078125,-0.5805664,-9.765625E-4,0.81396484
17/07/11 05:05:10:936,3353,0.8486328,-0.079589844,0.037109375,0.040440552,-0.10003716,6.707811,0.009765625,-0.5629883,-0.0014648438,0.8261719
17/07/11 05:05:10:942,3359,0.8996582,0.0793457,0.29052734,0.1436704,-0.06491773,6.685462,0.009765625,-0.5629883,-0.0014648438,0.8261719
17/07/11 05:05:10:946,3363,0.8996582,0.0793457,0.29052734,0.1436704,-0.06491773,6.685462,0.008300781,-0.54003906,0.0,0.8413086
17/07/11 05:05:10:951,3368,0.8066406,0.10888672,0.38793945,0.07555998,-0.022348728,6.7397375,0.008300781,-0.54003906,0.0,0.8413086
17/07/11 05:05:10:956,3373,0.8066406,0.10888672,0.38793945,0.07555998,-0.022348728,6.7397375,0.0146484375,-0.5214844,-0.0029296875,0.85302734
17/07/11 05:05:10:962,3379,0.79296875,0.008300781,0.2919922,0.022348728,-0.07343153,6.7918844,0.0146484375,-0.5214844,-0.0029296875,0.85302734
17/07/11 05:05:10:968,3385,0.79296875,0.008300781,0.2919922,0.022348728,-0.07343153,6.7918844,0.021972656,-0.49365234,-0.005859375,0.8691406
17/07/11 05:05:10:973,3390,0.7080078,-0.02709961,0.32250977,0.013834926,-0.061725058,6.836582,0.021484375,-0.46972656,-0.0043945313,0.8823242
17/07/11 05:05:10:978,3395,0.7080078,-0.02709961,0.32250977,0.013834926,-0.061725058,6.836582,0.021484375,-0.46972656,-0.0043945313,0.8823242
17/07/11 05:05:10:983,3400,0.6999512,0.027832031,0.3684082,0.022348728,-0.038312104,6.869573,0.020507813,-0.44189453,-0.0029296875,0.8964844
17/07/11 05:05:10:988,3405,0.6999512,0.027832031,0.3684082,0.022348728,-0.038312104,6.869573,0.020507813,-0.44189453,-0.0029296875,0.8964844
17/07/11 05:05:10:993,3410,0.66381836,7.324219E-4,0.42895508,0.011706476,-0.07662421,6.9610963,0.020996094,-0.41357422,-0.001953125,0.91015625
17/07/11 05:05:10:998,3415,0.66381836,7.324219E-4,0.42895508,0.011706476,-0.07662421,6.9610963,0.020996094,-0.41357422,-0.001953125,0.91015625
17/07/11 05:05:11:003,3420,0.61621094,0.01171875,0.45751953,0.009578026,-0.07236731,7.0515556,0.020996094,-0.41357422,-0.001953125,0.91015625
17/07/11 05:05:11:008,3425,0.61621094,0.01171875,0.45751953,0.009578026,-0.07236731,7.0515556,0.020507813,-0.38476563,-9.765625E-4,0.92285156
17/07/11 05:05:11:013,3430,0.47607422,0.019042969,0.4724121,0.017027602,-0.04363323,7.1324368,0.020507813,-0.35498047,0.0,0.9345703
17/07/11 05:05:11:018,3435,0.47607422,0.019042969,0.4724121,0.017027602,-0.04363323,7.1324368,0.020507813,-0.35498047,0.0,0.9345703
17/07/11 05:05:11:023,3440,0.47607422,0.019042969,0.4724121,0.017027602,-0.04363323,7.1324368,0.020507813,-0.35498047,0.0,0.9345703
17/07/11 05:05:11:028,3445,0.47607422,0.019042969,0.4724121,0.017027602,-0.04363323,7.1324368,0.020507813,-0.35498047,0.0,0.9345703
17/07/11 05:05:11:033,3450,0.47607422,0.019042969,0.4724121,0.017027602,-0.04363323,7.1324368,0.020507813,-0.35498047,0.0,0.9345703
17/07/11 05:05:11:039,3456,0.47607422,0.019042969,0.4724121,0.017027602,-0.04363323,7.1324368,0.020507813,-0.35498047,0.0,0.9345703
17/07/11 05:05:11:044,3461,0.47607422,0.019042969,0.4724121,0.017027602,-0.04363323,7.1324368,0.020507813,-0.35498047,0.0,0.9345703
17/07/11 05:05:11:049,3466,0.32910156,0.028076172,0.51708984,0.034055203,-0.065981954,7.1675563,0.01953125,-0.32763672,9.765625E-4,0.94433594
17/07/11 05:05:11:054,3471,0.13916016,0.033935547,0.61035156,0.032990977,-0.09897293,6.8482885,0.020996094,-0.24951172,0.001953125,0.96777344
17/07/11 05:05:11:059,3476,0.13916016,0.033935547,0.61035156,0.032990977,-0.09897293,6.8482885,0.020996094,-0.21240234,0.0024414063,0.9770508
17/07/11 05:05:11:064,3481,0.13916016,0.023925781,0.6298828,0.028734077,-0.11706476,6.755701,0.021484375,-0.17675781,0.0029296875,0.9838867
17/07/11 05:05:11:069,3486,0.13916016,0.023925781,0.6298828,0.028734077,-0.11706476,6.755701,0.021484375,-0.17675781,0.0029296875,0.9838867
17/07/11 05:05:11:074,3491,0.068603516,0.055908203,0.62939453,0.03937633,-0.13302813,6.6812053,0.021484375,-0.14160156,0.0034179688,0.9897461
17/07/11 05:05:11:079,3496,0.068603516,0.055908203,0.62939453,0.03937633,-0.13302813,6.6812053,0.021484375,-0.14160156,0.0034179688,0.9897461
17/07/11 05:05:11:084,3501,-0.021240234,0.021240234,0.6386719,0.019156052,-0.14154194,6.596067,0.022949219,-0.10449219,0.0034179688,0.9941406
17/07/11 05:05:11:089,3506,-0.021240234,0.021240234,0.6386719,0.019156052,-0.14154194,6.596067,0.022949219,-0.10449219,0.0034179688,0.9941406
17/07/11 05:05:11:095,3512,-0.13671875,-0.022949219,0.6386719,0.03192675,-0.16921179,6.541792,0.022460938,-0.06738281,0.00390625,0.9970703
17/07/11 05:05:11:100,3517,-0.13671875,-0.022949219,0.6386719,0.03192675,-0.16921179,6.541792,0.022460938,-0.06738281,0.00390625,0.9970703
17/07/11 05:05:11:105,3522,-0.21923828,0.015136719,0.64208984,0.028734077,-0.15218419,6.4289837,0.020996094,-0.02734375,0.00390625,0.99902344
17/07/11 05:05:11:111,3528,-0.21923828,0.015136719,0.64208984,0.028734077,-0.15218419,6.4289837,0.020996094,-0.02734375,0.00390625,0.99902344
17/07/11 05:05:11:117,3534,-0.2758789,0.04272461,0.6533203,0.009578026,-0.123450115,6.274671,0.020996094,0.0087890625,0.00390625,0.9995117
17/07/11 05:05:11:122,3539,-0.2758789,0.04272461,0.6533203,0.009578026,-0.123450115,6.274671,0.020996094,0.0087890625,0.00390625,0.9995117
17/07/11 05:05:11:127,3544,-0.3071289,0.0637207,0.64819336,0.014899151,-0.13302813,6.1395144,0.021484375,0.043945313,0.0043945313,0.99853516
17/07/11 05:05:11:132,3549,-0.3071289,0.0637207,0.64819336,0.014899151,-0.13302813,6.1395144,0.021484375,0.043945313,0.0043945313,0.99853516
17/07/11 05:05:11:137,3554,-0.26757813,0.057128906,0.6464844,0.018091828,-0.14047772,6.0533123,0.021484375,0.076660156,0.0043945313,0.99658203
17/07/11 05:05:11:142,3559,-0.26757813,0.057128906,0.58618164,0.018091828,-0.14047772,6.0533123,0.021484375,0.076660156,0.0043945313,0.99658203
17/07/11 05:05:11:147,3564,-0.5300293,-0.005126953,0.58618164,0.009578026,-0.13728504,6.0267067,0.021972656,0.10888672,0.0043945313,0.99365234
17/07/11 05:05:11:153,3570,-0.65771484,-0.032226563,0.6218262,-0.0074495757,-0.13834926,5.7702284,0.020507813,0.1538086,0.0043945313,0.98779297
17/07/11 05:05:11:158,3575,-0.65771484,-0.032226563,0.6218262,-0.0074495757,-0.13834926,5.7702284,0.020507813,0.1538086,0.0043945313,0.98779297
17/07/11 05:05:11:163,3580,-0.8347168,0.057128906,0.64208984,0.013834926,-0.109615184,5.4158416,0.01953125,0.18945313,0.00390625,0.9814453
17/07/11 05:05:11:168,3585,-0.8347168,0.057128906,0.64208984,0.013834926,-0.109615184,5.4158416,0.01953125,0.18945313,0.00390625,0.9814453
17/07/11 05:05:11:173,3590,-0.96118164,0.0029296875,0.5871582,0.008513801,-0.16708334,4.9475827,0.020019531,0.22265625,0.00390625,0.9746094
17/07/11 05:05:11:178,3595,-0.96118164,0.0029296875,0.5871582,0.008513801,-0.16708334,4.9475827,0.020019531,0.22265625,0.00390625,0.9746094
17/07/11 05:05:11:183,3600,-1.1447754,0.02709961,0.67578125,0.010642251,-0.15005574,4.3218184,0.01953125,0.25390625,0.0034179688,0.9667969
17/07/11 05:05:11:188,3605,-1.1447754,0.02709961,0.67578125,0.010642251,-0.15005574,4.3218184,0.01953125,0.25390625,0.0034179688,0.9667969
17/07/11 05:05:11:194,3611,-1.1413574,0.048828125,0.6447754,0.010642251,-0.15111996,3.451282,0.019042969,0.28808594,0.0029296875,0.95751953
17/07/11 05:05:11:199,3616,-1.1413574,0.048828125,0.6447754,0.010642251,-0.15111996,3.451282,0.019042969,0.28808594,0.0029296875,0.95751953
17/07/11 05:05:11:204,3621,-1.0771484,0.012451172,0.66552734,-0.020220276,-0.06917463,2.5881953,0.019042969,0.30615234,0.0029296875,0.95166016
17/07/11 05:05:11:209,3626,-1.0771484,0.012451172,0.66552734,-0.020220276,-0.06917463,2.5881953,0.019042969,0.30615234,0.0029296875,0.95166016
17/07/11 05:05:11:214,3631,-0.9609375,0.03857422,0.689209,-0.025541402,-0.036183655,1.8932564,0.019042969,0.32128906,0.0029296875,0.94677734
17/07/11 05:05:11:219,3636,-0.9609375,0.03857422,0.689209,-0.025541402,-0.036183655,1.8932564,0.019042969,0.32128906,0.0029296875,0.94677734
17/07/11 05:05:11:224,3641,-0.9609375,0.03857422,0.689209,-0.025541402,-0.036183655,1.8932564,0.019042969,0.32128906,0.0029296875,0.94677734
17/07/11 05:05:11:229,3646,-0.9609375,0.03857422,0.689209,-0.025541402,-0.036183655,1.8932564,0.019042969,0.32128906,0.0029296875,0.94677734
17/07/11 05:05:11:235,3652,-0.9609375,0.03857422,0.689209,-0.025541402,-0.036183655,1.8932564,0.019042969,0.32128906,0.0029296875,0.94677734
17/07/11 05:05:11:240,3657,-0.9609375,0.03857422,0.689209,-0.025541402,-0.036183655,1.8932564,0.019042969,0.32128906,0.0029296875,0.94677734
17/07/11 05:05:11:245,3662,-0.9609375,0.02319336,0.68359375,-0.025541402,-0.036183655,1.8932564,0.019042969,0.32128906,0.0029296875,0.94677734
17/07/11 05:05:11:250,3667,-0.94262695,0.02319336,0.68359375,-0.037247878,-0.026605628,1.3526301,0.019042969,0.33642578,0.0029296875,0.94140625
17/07/11 05:05:11:256,3673,-0.60375977,-0.04321289,0.6254883,-0.042569004,-0.017027602,0.013834926,0.016601563,0.36865234,0.0024414063,0.9291992
17/07/11 05:05:11:261,3678,-0.60375977,-0.04321289,0.6254883,-0.042569004,-0.017027602,0.013834926,0.016601563,0.36865234,0.0024414063,0.9291992
17/07/11 05:05:11:266,3683,-0.66674805,-0.041503906,0.7121582,-0.037247878,-0.023412952,-0.053211257,0.001953125,0.37060547,-0.0029296875,0.92871094
17/07/11 05:05:11:271,3688,-0.66674805,-0.041503906,0.7121582,-0.037247878,-0.023412952,-0.053211257,0.001953125,0.37060547,-0.0029296875,0.92871094
17/07/11 05:05:11:276,3693,-0.66674805,-0.041503906,0.7121582,-0.037247878,-0.023412952,-0.053211257,0.001953125,0.37060547,-0.0029296875,0.92871094
17/07/11 05:05:11:281,3698,-0.66674805,-0.041503906,0.7121582,-0.037247878,-0.023412952,-0.053211257,0.001953125,0.37060547,-0.0029296875,0.92871094
17/07/11 05:05:11:286,3703,-0.66674805,-0.041503906,0.7121582,-0.037247878,-0.023412952,-0.053211257,0.001953125,0.37060547,-0.0029296875,0.92871094
17/07/11 05:05:11:291,3708,-0.66674805,-0.041503906,0.7121582,-0.037247878,-0.023412952,-0.053211257,0.001953125,0.37060547,-0.0029296875,0.92871094
17/07/11 05:05:11:296,3713,-1.4152832,0.0637207,0.7878418,-0.025541402,-0.011706476,-0.15111996,-0.0048828125,0.36914063,-0.005859375,0.9291992
17/07/11 05:05:11:301,3718,-0.9567871,-0.0034179688,0.73706055,-0.057468154,0.020220276,-1.6963748,0.0,0.41064453,-0.0029296875,0.9121094
17/07/11 05:05:11:306,3723,-0.8173828,0.026123047,0.7133789,-0.09578026,0.040440552,-2.1816614,0.0,0.4140625,-0.0024414063,0.91015625
17/07/11 05:05:11:311,3728,-0.8173828,0.026123047,0.7133789,-0.09578026,0.040440552,-2.1816614,0.0,0.4140625,-0.0024414063,0.91015625
17/07/11 05:05:11:316,3733,-0.9433594,-0.05883789,0.6933594,-0.118128985,0.044697456,-2.5552044,0.0068359375,0.4033203,4.8828125E-4,0.9145508
17/07/11 05:05:11:322,3739,-0.7561035,0.092041016,0.6921387,-0.017027602,0.008513801,-3.081996,0.0068359375,0.4033203,4.8828125E-4,0.9145508
17/07/11 05:05:11:328,3745,-0.7561035,0.092041016,0.6921387,-0.017027602,0.008513801,-3.081996,0.0034179688,0.39697266,0.0,0.91748047
17/07/11 05:05:11:333,3750,-0.7561035,0.092041016,0.6921387,-0.017027602,0.008513801,-3.081996,0.0034179688,0.39697266,0.0,0.91748047
17/07/11 05:05:11:338,3755,-0.7561035,0.092041016,0.6921387,-0.017027602,0.008513801,-3.081996,0.0034179688,0.39697266,0.0,0.91748047
17/07/11 05:05:11:344,3761,-0.7561035,0.092041016,0.6921387,-0.017027602,0.008513801,-3.081996,0.0034179688,0.39697266,0.0,0.91748047
17/07/11 05:05:11:351,3768,-0.7561035,0.092041016,0.6921387,-0.017027602,0.008513801,-3.081996,0.0034179688,0.39697266,0.0,0.91748047
17/07/11 05:05:11:356,3773,-0.814209,0.023925781,0.670166,-0.0638535,0.03192675,-3.4683096,0.018066406,0.38476563,0.0063476563,0.92285156
17/07/11 05:05:11:361,3778,-0.8029785,0.07885742,0.6948242,-0.07023886,-0.0053211255,-4.478259,0.017089844,0.3544922,0.005859375,0.9345703
17/07/11 05:05:11:366,3783,-0.7441406,-0.014404297,0.61938477,-0.10642251,0.0042569004,-4.9997296,0.018066406,0.3359375,0.005859375,0.94140625
17/07/11 05:05:11:371,3788,-0.64990234,-0.005859375,0.62939453,-0.09152336,0.0031926753,-5.4828877,0.018066406,0.3359375,0.005859375,0.94140625
17/07/11 05:05:11:376,3793,-0.64990234,-0.005859375,0.62939453,-0.09152336,0.0031926753,-5.4828877,0.016113281,0.31884766,0.0048828125,0.9477539
17/07/11 05:05:11:381,3798,-0.5751953,0.043701172,0.6418457,-0.07555998,-0.011706476,-5.9681745,0.016113281,0.31884766,0.0048828125,0.9477539
17/07/11 05:05:11:386,3803,-0.5751953,0.043701172,0.6418457,-0.07555998,-0.011706476,-5.9681745,0.015136719,0.29589844,0.0043945313,0.9550781
17/07/11 05:05:11:391,3808,-0.4387207,0.019042969,0.6101074,-0.08407378,-0.0,-6.4566536,0.015136719,0.29589844,0.0043945313,0.9550781
17/07/11 05:05:11:396,3813,-0.4387207,0.019042969,0.6101074,-0.08407378,-0.0,-6.4566536,0.015625,0.27001953,0.0043945313,0.96240234
17/07/11 05:05:11:401,3818,-0.4387207,0.019042969,0.6101074,-0.08407378,-0.0,-6.4566536,0.015625,0.27001953,0.0043945313,0.96240234
17/07/11 05:05:11:406,3823,-0.42773438,0.03491211,0.59472656,-0.09578026,0.028734077,-6.835518,0.015136719,0.24560547,0.00390625,0.9692383
17/07/11 05:05:11:411,3828,-0.42773438,0.03491211,0.54833984,-0.09578026,0.028734077,-6.835518,0.015136719,0.24560547,0.00390625,0.9692383
17/07/11 05:05:11:417,3834,-0.3618164,0.04711914,0.54833984,-0.12025744,0.044697456,-7.2505655,0.015136719,0.21386719,0.00390625,0.9765625
17/07/11 05:05:11:422,3839,-0.17993164,-0.0107421875,0.51293945,-0.11174364,0.017027602,-7.641136,0.016113281,0.18164063,0.00390625,0.98291016
17/07/11 05:05:11:427,3844,-0.17993164,-0.0107421875,0.51293945,-0.11174364,0.017027602,-7.641136,0.016113281,0.18164063,0.00390625,0.98291016
17/07/11 05:05:11:433,3850,-0.17993164,-0.0107421875,0.51293945,-0.11174364,0.017027602,-7.641136,0.016113281,0.18164063,0.00390625,0.98291016
17/07/11 05:05:11:438,3855,-0.17993164,-0.0107421875,0.51293945,-0.11174364,0.017027602,-7.641136,0.016113281,0.18164063,0.00390625,0.98291016
17/07/11 05:05:11:443,3860,-0.17993164,-0.0107421875,0.51293945,-0.11174364,0.017027602,-7.641136,0.016113281,0.18164063,0.00390625,0.98291016
17/07/11 05:05:11:448,3865,-0.17993164,-0.0107421875,0.51293945,-0.11174364,0.017027602,-7.641136,0.016113281,0.18164063,0.00390625,0.98291016
17/07/11 05:05:11:453,3870,-0.17993164,-0.0107421875,0.51293945,-0.11174364,0.017027602,-7.641136,0.016113281,0.18164063,0.00390625,0.98291016
17/07/11 05:05:11:458,3875,-0.036621094,0.01586914,0.46679688,-0.080881104,-0.026605628,-7.866752,0.0087890625,0.14013672,0.0024414063,0.9897461
17/07/11 05:05:11:464,3881,0.14672852,-0.05419922,0.39160156,-0.118128985,-0.021284502,-8.372259,0.013183594,0.037597656,0.0024414063,0.99902344
17/07/11 05:05:11:469,3886,0.14672852,-0.05419922,0.39160156,-0.118128985,-0.021284502,-8.372259,0.014160156,-0.0063476563,0.001953125,-1.0
17/07/11 05:05:11:474,3891,-0.2836914,-0.020019531,0.18017578,-0.10110138,0.0053211255,-8.850096,0.0107421875,-0.055664063,0.0014648438,0.9980469
17/07/11 05:05:11:479,3896,-0.2836914,-0.020019531,0.18017578,-0.10110138,0.0053211255,-8.850096,0.0107421875,-0.055664063,0.0014648438,0.9980469
17/07/11 05:05:11:486,3903,0.32202148,0.07714844,0.16430664,-0.088330686,-0.15111996,-9.60676,0.0078125,-0.068847656,9.765625E-4,0.9975586
17/07/11 05:05:11:491,3908,0.32202148,0.07714844,0.16430664,-0.088330686,-0.15111996,-9.60676,0.0078125,-0.068847656,9.765625E-4,0.9975586
17/07/11 05:05:11:496,3913,0.7285156,-0.010498047,0.19458008,-0.123450115,-0.017027602,-9.737659,0.015136719,-0.14697266,0.0,0.9892578
17/07/11 05:05:11:501,3918,0.7285156,-0.010498047,0.19458008,-0.123450115,-0.017027602,-9.737659,0.015136719,-0.14697266,0.0,0.9892578
17/07/11 05:05:11:507,3924,0.904541,-0.017822266,0.1550293,-0.08939491,0.009578026,-9.410943,0.013671875,-0.22460938,0.0,0.9746094
17/07/11 05:05:11:512,3929,0.93359375,0.06738281,0.032714844,-0.07343153,-0.030862529,-9.052299,0.013183594,-0.27734375,0.0,0.9604492
17/07/11 05:05:11:519,3936,0.93359375,0.06738281,0.032714844,-0.07343153,-0.030862529,-9.052299,0.013183594,-0.27734375,0.0,0.9604492
17/07/11 05:05:11:524,3941,1.0605469,0.06738281,0.14575195,-0.10429406,-0.03192675,-8.752187,0.013671875,-0.32714844,-4.8828125E-4,0.9448242
17/07/11 05:05:11:529,3946,1.0605469,0.06738281,0.14575195,-0.10429406,-0.03192675,-8.752187,0.013671875,-0.32714844,-4.8828125E-4,0.9448242
17/07/11 05:05:11:534,3951,1.1398926,-0.079833984,0.07470703,-0.10429406,-0.008513801,-8.326497,0.013671875,-0.375,-0.0014648438,0.9267578
17/07/11 05:05:11:539,3956,1.1398926,-0.079833984,0.07470703,-0.10429406,-0.008513801,-8.326497,0.013671875,-0.375,-0.0014648438,0.9267578
17/07/11 05:05:11:544,3961,1.0827637,0.0078125,0.08935547,-0.04576168,0.05214703,-7.877394,0.012207031,-0.4194336,-0.0014648438,0.90771484
17/07/11 05:05:11:549,3966,1.0827637,0.0078125,0.08935547,-0.04576168,0.05214703,-7.877394,0.012207031,-0.4194336,-0.0014648438,0.90771484
17/07/11 05:05:11:554,3971,1.0710449,0.024658203,0.056884766,-0.030862529,0.06704618,-7.5262,0.01171875,-0.4609375,-0.0014648438,0.88720703
17/07/11 05:05:11:560,3977,1.0710449,0.024658203,0.056884766,-0.030862529,0.06704618,-7.5262,0.01171875,-0.4609375,-0.0014648438,0.88720703
17/07/11 05:05:11:565,3982,1.0942383,0.06713867,-0.060546875,-0.046825904,0.037247878,-7.2729144,0.01171875,-0.4951172,-0.0014648438,0.86865234
17/07/11 05:05:11:570,3987,1.0942383,0.06713867,-0.060546875,-0.046825904,0.037247878,-7.2729144,0.01171875,-0.4951172,-0.0014648438,0.86865234
17/07/11 05:05:11:575,3992,1.239502,0.011474609,-0.046875,-0.07768843,0.010642251,-7.030271,0.01171875,-0.53222656,-0.001953125,0.8466797
17/07/11 05:05:11:580,3997,1.239502,0.011474609,-0.046875,-0.07768843,0.010642251,-7.030271,0.01171875,-0.53222656,-0.001953125,0.8466797
17/07/11 05:05:11:585,4002,1.239502,0.011474609,-0.046875,-0.07768843,0.010642251,-7.030271,0.01171875,-0.53222656,-0.001953125,0.8466797
17/07/11 05:05:11:591,4008,1.239502,0.011474609,-0.046875,-0.07768843,0.010642251,-7.030271,0.01171875,-0.53222656,-0.001953125,0.8466797
17/07/11 05:05:11:596,4013,1.239502,0.011474609,-0.046875,-0.07768843,0.010642251,-7.030271,0.01171875,-0.53222656,-0.001953125,0.8466797
17/07/11 05:05:11:601,4018,1.239502,0.011474609,-0.046875,-0.07768843,0.010642251,-7.030271,0.01171875,-0.53222656,-0.001953125,0.8466797
17/07/11 05:05:11:606,4023,1.2250977,-0.009033203,-0.11791992,-0.07875266,0.0031926753,-6.6311865,0.011230469,-0.56689453,-0.001953125,0.82373047
17/07/11 05:05:11:611,4028,1.4914551,-0.015625,-0.14404297,-0.074495755,-0.008513801,-5.9681745,0.009765625,-0.62597656,-0.001953125,0.77978516
17/07/11 05:05:11:616,4033,1.4194336,0.012207031,-0.140625,-0.07023886,0.011706476,-5.2040606,0.0087890625,-0.6582031,-0.0014648438,0.7529297
17/07/11 05:05:11:621,4038,1.4194336,0.012207031,-0.140625,-0.07023886,0.011706476,-5.2040606,0.0087890625,-0.6582031,-0.0014648438,0.7529297
17/07/11 05:05:11:627,4044,1.3771973,0.08154297,-0.17895508,-0.044697456,0.012770701,-4.561269,0.008300781,-0.6796875,-0.0014648438,0.73339844
17/07/11 05:05:11:632,4049,1.3771973,0.08154297,-0.17895508,-0.044697456,0.012770701,-4.561269,0.008300781,-0.6796875,-0.0014648438,0.73339844
17/07/11 05:05:11:637,4054,1.3771973,0.08154297,-0.17895508,-0.044697456,0.012770701,-4.561269,0.008300781,-0.6796875,-0.0014648438,0.73339844
17/07/11 05:05:11:643,4060,1.3771973,0.08154297,-0.17895508,-0.044697456,0.012770701,-4.561269,0.008300781,-0.6796875,-0.0014648438,0.73339844
17/07/11 05:05:11:649,4066,1.3771973,0.08154297,-0.17895508,-0.044697456,0.012770701,-4.561269,0.008300781,-0.6796875,-0.0014648438,0.73339844
17/07/11 05:05:11:655,4072,1.3771973,0.08154297,-0.17895508,-0.044697456,0.012770701,-4.561269,0.008300781,-0.6796875,-0.0014648438,0.73339844
17/07/11 05:05:11:660,4077,1.2226563,0.03540039,-0.1706543,-0.059596606,0.018091828,-3.985523,0.0087890625,-0.6982422,-0.001953125,0.71533203
17/07/11 05:05:11:665,4082,2.4736328,0.18164063,-0.25073242,0.09152336,0.07768843,-1.5665393,-0.0014648438,-0.7294922,0.0073242188,0.68359375
17/07/11 05:05:11:670,4087,2.4736328,0.18164063,-0.25073242,0.09152336,0.07768843,-1.5665393,-0.0014648438,-0.7294922,0.0073242188,0.68359375
17/07/11 05:05:11:675,4092,0.18823242,-0.12841797,-0.09057617,-0.088330686,0.06278928,0.5885165,0.017089844,-0.7426758,-0.01171875,0.6694336
17/07/11 05:05:11:680,4097,0.18823242,-0.12841797,-0.09057617,-0.088330686,0.06278928,0.5885165,0.017089844,-0.7426758,-0.01171875,0.6694336
17/07/11 05:05:11:685,4102,0.18823242,-0.12841797,-0.09057617,-0.088330686,0.06278928,0.5885165,0.017089844,-0.7426758,-0.01171875,0.6694336
17/07/11 05:05:11:691,4108,0.18823242,-0.12841797,-0.09057617,-0.088330686,0.06278928,0.5885165,0.017089844,-0.7426758,-0.01171875,0.6694336
17/07/11 05:05:11:697,4114,0.18823242,-0.12841797,-0.09057617,-0.088330686,0.06278928,0.5885165,0.017089844,-0.7426758,-0.01171875,0.6694336
17/07/11 05:05:11:702,4119,0.18823242,-0.12841797,-0.09057617,-0.088330686,0.06278928,0.5885165,0.017089844,-0.7426758,-0.01171875,0.6694336
17/07/11 05:05:11:707,4124,1.3730469,0.13208008,-0.23217773,0.11174364,0.037247878,-0.5704247,-0.0014648438,-0.7504883,0.009277344,0.66064453
17/07/11 05:05:11:712,4129,1.0324707,0.03100586,-0.21655273,-0.027669853,-0.019156052,0.07875266,0.022460938,-0.7597656,-0.017089844,0.64941406
17/07/11 05:05:11:717,4134,1.1843262,-0.011230469,-0.17993164,-0.06811041,-0.048954353,0.04363323,0.019042969,-0.76660156,-0.012207031,0.64160156
17/07/11 05:05:11:723,4140,1.0725098,-0.045898438,-0.11987305,-0.097908705,-0.08939491,0.19581741,0.0146484375,-0.76464844,-0.0078125,0.64404297
17/07/11 05:05:11:728,4145,1.0725098,-0.045898438,-0.11987305,-0.097908705,-0.08939491,0.19581741,0.0146484375,-0.76464844,-0.0078125,0.64404297
17/07/11 05:05:11:733,4150,1.0725098,-0.045898438,-0.11987305,-0.097908705,-0.08939491,0.19581741,0.0146484375,-0.76464844,-0.0078125,0.64404297
17/07/11 05:05:11:738,4155,1.0725098,-0.045898438,-0.11987305,-0.097908705,-0.08939491,0.19581741,0.0146484375,-0.76464844,-0.0078125,0.64404297
17/07/11 05:05:11:744,4161,1.0725098,-0.045898438,-0.11987305,-0.097908705,-0.08939491,0.19581741,0.0146484375,-0.76464844,-0.0078125,0.64404297
17/07/11 05:05:11:749,4166,1.0725098,-0.045898438,-0.11987305,-0.097908705,-0.08939491,0.19581741,0.0146484375,-0.76464844,-0.0078125,0.64404297
17/07/11 05:05:11:754,4171,0.68359375,-0.05102539,-0.0925293,-0.09258758,-0.08513801,0.24902867,0.0146484375,-0.76464844,-0.0078125,0.64404297
17/07/11 05:05:11:759,4176,1.9658203,0.13330078,-0.37109375,-0.05427548,-0.07236731,-0.15218419,0.011230469,-0.76123047,-0.00390625,0.6479492
17/07/11 05:05:11:764,4181,1.425293,0.15234375,0.22436523,0.18943207,0.12132166,2.3785431,0.00390625,-0.7548828,0.0029296875,0.6557617
17/07/11 05:05:11:770,4187,1.425293,0.15234375,0.22436523,0.18943207,0.12132166,2.3785431,0.00390625,-0.7548828,0.0029296875,0.6557617
17/07/11 05:05:11:775,4192,1.2314453,0.079589844,-0.059814453,0.015963376,-0.3139464,3.2990978,0.008300781,-0.73291016,-4.8828125E-4,0.6801758
17/07/11 05:05:11:780,4197,1.2314453,0.079589844,-0.059814453,0.015963376,-0.3139464,3.2990978,0.008300781,-0.73291016,-4.8828125E-4,0.6801758
17/07/11 05:05:11:785,4202,1.4111328,0.24853516,0.064697266,-0.10003716,-0.18730362,3.4076488,0.018066406,-0.7167969,-0.0107421875,0.69677734
17/07/11 05:05:11:790,4207,1.4111328,0.24853516,0.064697266,-0.10003716,-0.18730362,3.4076488,0.018066406,-0.7167969,-0.0107421875,0.69677734
17/07/11 05:05:11:796,4213,1.3464355,-0.21362305,-0.32788086,-0.3011757,-0.088330686,3.885486,0.02734375,-0.69970703,-0.020019531,0.7133789
17/07/11 05:05:11:802,4219,1.2102051,0.004638672,-0.09667969,-0.048954353,-0.09684449,4.5410485,0.02734375,-0.69970703,-0.020019531,0.7133789
17/07/11 05:05:11:807,4224,1.2102051,0.004638672,-0.09667969,-0.048954353,-0.09684449,4.5410485,0.0146484375,-0.70166016,-0.0078125,0.71240234
17/07/11 05:05:11:812,4229,1.3425293,0.048339844,-0.03515625,0.0031926753,-0.10855096,4.8379674,0.0146484375,-0.70166016,-0.0078125,0.71240234
17/07/11 05:05:11:817,4234,1.3425293,0.048339844,-0.03515625,0.0031926753,-0.10855096,4.8379674,0.0126953125,-0.69384766,-0.0048828125,0.72021484
17/07/11 05:05:11:822,4239,1.2580566,0.018066406,-0.1159668,-0.0010642251,-0.10003716,5.3679514,0.014160156,-0.6801758,-0.0053710938,0.7324219
17/07/11 05:05:11:827,4244,1.2580566,0.018066406,-0.1159668,-0.0010642251,-0.10003716,5.3679514,0.014160156,-0.6801758,-0.0053710938,0.7324219
17/07/11 05:05:11:832,4249,1.2053223,0.0026855469,-0.048095703,-0.0010642251,-0.10748673,5.8351464,0.014160156,-0.66503906,-0.0048828125,0.74658203
17/07/11 05:05:11:838,4255,1.2053223,0.0026855469,-0.048095703,-0.0010642251,-0.10748673,5.8351464,0.014160156,-0.66503906,-0.0048828125,0.74658203
17/07/11 05:05:11:843,4260,1.2053223,0.0026855469,-0.048095703,-0.0010642251,-0.10748673,5.8351464,0.014160156,-0.66503906,-0.0048828125,0.74658203
17/07/11 05:05:11:849,4266,1.2053223,0.0026855469,-0.048095703,-0.0010642251,-0.10748673,5.8351464,0.014160156,-0.66503906,-0.0048828125,0.74658203
17/07/11 05:05:11:853,4270,1.2053223,0.0026855469,-0.048095703,-0.0010642251,-0.10748673,5.8351464,0.014160156,-0.66503906,-0.0048828125,0.74658203
17/07/11 05:05:11:858,4275,1.2053223,0.0026855469,-0.048095703,-0.0010642251,-0.10748673,5.8351464,0.014160156,-0.66503906,-0.0048828125,0.74658203
17/07/11 05:05:11:863,4280,1.2053223,0.0026855469,-0.048095703,-0.0010642251,-0.10748673,5.8351464,0.014160156,-0.66503906,-0.0048828125,0.74658203
17/07/11 05:05:11:868,4285,1.0495605,-0.005126953,0.06762695,0.0042569004,-0.09578026,6.669499,0.014160156,-0.6064453,-0.0024414063,0.7949219
17/07/11 05:05:11:873,4290,0.9916992,0.016357422,0.12451172,0.0074495757,-0.09578026,6.87383,0.014160156,-0.58203125,-0.001953125,0.8129883
17/07/11 05:05:11:878,4295,0.9916992,0.016357422,0.12451172,0.0074495757,-0.09578026,6.87383,0.014160156,-0.58203125,-0.001953125,0.8129883
17/07/11 05:05:11:883,4300,0.8659668,0.025146484,0.16186523,-0.0021284502,-0.09045913,7.0292068,0.0146484375,-0.5566406,-0.0014648438,0.8305664
17/07/11 05:05:11:888,4305,0.8659668,0.025146484,0.16186523,-0.0021284502,-0.09045913,7.0292068,0.0146484375,-0.5566406,-0.0014648438,0.8305664
17/07/11 05:05:11:893,4310,0.90893555,0.03149414,0.22045898,0.0021284502,-0.08939491,7.0888033,0.015136719,-0.53271484,-9.765625E-4,0.8461914
17/07/11 05:05:11:898,4315,0.90893555,0.03149414,0.22045898,0.0021284502,-0.08939491,7.0888033,0.015136719,-0.53271484,-9.765625E-4,0.8461914
17/07/11 05:05:11:903,4320,0.8876953,0.022216797,0.26049805,0.0053211255,-0.08513801,7.218639,0.015625,-0.5053711,-4.8828125E-4,0.86279297
17/07/11 05:05:11:908,4325,0.8876953,0.022216797,0.26049805,0.0053211255,-0.08513801,7.218639,0.015625,-0.5053711,-4.8828125E-4,0.86279297
17/07/11 05:05:11:914,4331,0.8666992,0.036621094,0.27978516,0.0053211255,-0.079816885,7.4016857,0.015625,-0.47509766,0.0,0.87939453
17/07/11 05:05:11:919,4336,0.8666992,0.036621094,0.27978516,0.0053211255,-0.079816885,7.4016857,0.015625,-0.47509766,0.0,0.87939453
17/07/11 05:05:11:924,4341,0.74853516,0.028076172,0.3112793,0.0053211255,-0.061725058,7.6134663,0.016113281,-0.44384766,0.0,0.8955078
17/07/11 05:05:11:929,4346,0.74853516,0.028076172,0.3112793,0.0053211255,-0.061725058,7.6134663,0.016113281,-0.44384766,0.0,0.8955078
17/07/11 05:05:11:935,4352,0.59521484,0.020507813,0.35839844,0.018091828,-0.06704618,7.7124395,0.016601563,-0.41601563,4.8828125E-4,0.9091797
17/07/11 05:05:11:940,4357,0.59521484,0.020507813,0.35839844,0.018091828,-0.06704618,7.7124395,0.016601563,-0.41601563,4.8828125E-4,0.9091797
17/07/11 05:05:11:946,4363,0.53149414,-0.052490234,0.30126953,0.083009556,-0.040440552,7.707118,0.017089844,-0.38671875,0.0014648438,0.921875
17/07/11 05:05:11:951,4368,0.53149414,-0.052490234,0.30126953,0.083009556,-0.040440552,7.707118,0.017089844,-0.38671875,0.0014648438,0.921875
17/07/11 05:05:11:957,4374,0.39648438,-0.0053710938,0.46411133,0.11919321,-0.0010642251,7.720953,0.0146484375,-0.35742188,0.0034179688,0.93359375
17/07/11 05:05:11:963,4380,0.29589844,0.0715332,0.42871094,0.05853238,-0.0638535,7.7092466,0.00390625,-0.31298828,0.0087890625,0.94970703
17/07/11 05:05:11:968,4385,0.29589844,0.0715332,0.42871094,0.05853238,-0.0638535,7.7092466,0.00390625,-0.31298828,0.0087890625,0.94970703
17/07/11 05:05:11:973,4390,0.22290039,0.049804688,0.5197754,0.022348728,-0.088330686,7.616659,0.011230469,-0.27441406,0.0063476563,0.9614258
17/07/11 05:05:11:979,4396,0.22290039,0.049804688,0.5197754,0.022348728,-0.088330686,7.616659,0.011230469,-0.27441406,0.0063476563,0.9614258
17/07/11 05:05:11:984,4401,0.033203125,-0.0017089844,0.55126953,0.0074495757,-0.07236731,7.4612823,0.014160156,-0.23144531,0.005859375,0.97265625
17/07/11 05:05:11:989,4406,0.033203125,-0.0017089844,0.55126953,0.0074495757,-0.07236731,7.4612823,0.014160156,-0.23144531,0.005859375,0.97265625
17/07/11 05:05:11:994,4411,0.08569336,0.0126953125,0.58740234,0.03192675,-0.11280786,7.218639,0.013671875,-0.18798828,0.0063476563,0.9819336
17/07/11 05:05:11:999,4416,0.08569336,0.0126953125,0.58740234,0.03192675,-0.11280786,7.218639,0.013671875,-0.18798828,0.0063476563,0.9819336
17/07/11 05:05:12:004,4421,-0.067871094,0.026855469,0.59106445,0.04789013,-0.14792728,7.0515556,0.013671875,-0.14892578,0.0068359375,0.98876953
17/07/11 05:05:12:009,4426,-0.067871094,0.026855469,0.59106445,0.04789013,-0.14792728,7.0515556,0.013671875,-0.14892578,0.0068359375,0.98876953
17/07/11 05:05:12:014,4431,-0.11791992,0.041259766,0.6333008,0.020220276,-0.11919321,6.7929487,0.014160156,-0.10644531,0.0063476563,0.9941406
17/07/11 05:05:12:020,4437,-0.11791992,0.041259766,0.6333008,0.020220276,-0.11919321,6.7929487,0.014160156,-0.10644531,0.0063476563,0.9941406
17/07/11 05:05:12:025,4442,-0.2133789,0.05493164,0.6665039,0.0063853506,-0.10642251,6.5428557,0.0146484375,-0.068847656,0.0068359375,0.9975586
17/07/11 05:05:12:030,4447,-0.2133789,0.05493164,0.6665039,0.0063853506,-0.10642251,6.5428557,0.0146484375,-0.068847656,0.0068359375,0.9975586
17/07/11 05:05:12:035,4452,-0.36523438,0.024658203,0.6791992,0.0,-0.09365181,6.2714787,0.015625,-0.028320313,0.0068359375,0.9995117
17/07/11 05:05:12:040,4457,-0.36523438,0.024658203,0.6791992,0.0,-0.09365181,6.2714787,0.015625,-0.028320313,0.0068359375,0.9995117
17/07/11 05:05:12:045,4462,-0.36523438,0.024658203,0.6791992,0.0,-0.09365181,6.2714787,0.015625,-0.028320313,0.0068359375,0.9995117
17/07/11 05:05:12:050,4467,-0.36523438,0.024658203,0.6791992,0.0,-0.09365181,6.2714787,0.015625,-0.028320313,0.0068359375,0.9995117
17/07/11 05:05:12:055,4472,-0.36523438,0.024658203,0.6791992,0.0,-0.09365181,6.2714787,0.015625,-0.028320313,0.0068359375,0.9995117
17/07/11 05:05:12:061,4478,-0.36523438,0.024658203,0.6791992,0.0,-0.09365181,6.2714787,0.015625,-0.028320313,0.0068359375,0.9995117
17/07/11 05:05:12:066,4483,-0.0048828125,-0.02319336,0.72680664,-0.009578026,-0.12025744,5.805348,0.015625,0.010253906,0.0068359375,0.9995117
17/07/11 05:05:12:071,4488,-0.0048828125,-0.02319336,0.72680664,-0.009578026,-0.12025744,5.805348,0.015625,0.010253906,0.0068359375,0.9995117
17/07/11 05:05:12:076,4493,-0.46606445,0.009033203,0.74902344,-0.0042569004,-0.12983546,5.1540422,-0.0014648438,0.12939453,0.005859375,0.9916992
17/07/11 05:05:12:081,4498,-0.46606445,0.009033203,0.74902344,-0.0042569004,-0.12983546,5.1540422,-0.0014648438,0.12939453,0.005859375,0.9916992
17/07/11 05:05:12:086,4503,-0.5410156,0.049804688,0.70166016,0.0,-0.19262475,4.8996925,-0.0014648438,0.1586914,0.0053710938,0.9873047
17/07/11 05:05:12:092,4509,-0.5410156,0.049804688,0.70166016,0.0,-0.19262475,4.8996925,-0.0014648438,0.1586914,0.0053710938,0.9873047
17/07/11 05:05:12:096,4513,-0.5410156,0.049804688,0.70166016,0.0,-0.19262475,4.8996925,-0.0014648438,0.1586914,0.0053710938,0.9873047
17/07/11 05:05:12:101,4518,-0.5410156,0.049804688,0.70166016,0.0,-0.19262475,4.8996925,-0.0014648438,0.1586914,0.0053710938,0.9873047
17/07/11 05:05:12:106,4523,-0.5410156,0.049804688,0.70166016,0.0,-0.19262475,4.8996925,-0.0014648438,0.1586914,0.0053710938,0.9873047
17/07/11 05:05:12:111,4528,-0.5410156,0.049804688,0.70166016,0.0,-0.19262475,4.8996925,-0.0014648438,0.1586914,0.0053710938,0.9873047
