global time,time(in ms),AccX,AccY,AccZ,GyroX,GyroY,GyroZ,QuatX,QuatY,QuatZ,QuatW
17/07/11 05:05:59:860,5,-0.7702637,0.034423828,0.5666504,-0.034055203,-0.044697456,0.0063853506,0.019042969,0.4506836,0.0,0.89208984
17/07/11 05:05:59:865,10,-0.7702637,0.034423828,0.5666504,-0.034055203,-0.044697456,0.0063853506,0.019042969,0.4506836,0.0,0.89208984
17/07/11 05:05:59:870,15,-0.7631836,0.03491211,0.5605469,-0.034055203,-0.044697456,0.0042569004,0.01953125,0.4506836,4.8828125E-4,0.89208984
17/07/11 05:05:59:875,20,-0.7631836,0.03491211,0.5605469,-0.034055203,-0.044697456,0.0042569004,0.01953125,0.4506836,4.8828125E-4,0.89208984
17/07/11 05:05:59:880,25,-0.77124023,0.034423828,0.56225586,-0.034055203,-0.04576168,0.0063853506,0.01953125,0.4506836,4.8828125E-4,0.89208984
17/07/11 05:05:59:885,30,-0.77124023,0.034423828,0.56225586,-0.034055203,-0.04576168,0.0063853506,0.020019531,0.45117188,4.8828125E-4,0.89208984
17/07/11 05:05:59:890,35,-0.77124023,0.034423828,0.56225586,-0.034055203,-0.04576168,0.0063853506,0.020019531,0.45117188,4.8828125E-4,0.89208984
17/07/11 05:05:59:895,40,-0.77124023,0.034423828,0.56225586,-0.034055203,-0.04576168,0.0063853506,0.020019531,0.45117188,4.8828125E-4,0.89208984
17/07/11 05:05:59:900,45,-0.77124023,0.034423828,0.56225586,-0.034055203,-0.04576168,0.0063853506,0.020019531,0.45117188,4.8828125E-4,0.89208984
17/07/11 05:05:59:905,50,-0.77124023,0.034423828,0.56225586,-0.034055203,-0.04576168,0.0063853506,0.020019531,0.45117188,4.8828125E-4,0.89208984
17/07/11 05:05:59:910,55,-0.77246094,0.03491211,0.5644531,-0.03511943,-0.04576168,0.0063853506,0.020019531,0.45166016,4.8828125E-4,0.89160156
17/07/11 05:05:59:917,62,-0.77197266,0.033203125,0.5644531,-0.036183655,-0.044697456,0.0063853506,0.020019531,0.45117188,4.8828125E-4,0.89208984
17/07/11 05:05:59:928,73,-0.7663574,0.03149414,0.5661621,-0.036183655,-0.04576168,0.0063853506,0.019042969,0.45117188,0.0,0.89208984
17/07/11 05:05:59:943,88,-0.7663574,0.03149414,0.5661621,-0.036183655,-0.04576168,0.0063853506,0.019042969,0.45117188,0.0,0.89208984
17/07/11 05:05:59:955,100,-0.7663574,0.03149414,0.5661621,-0.036183655,-0.04576168,0.0063853506,0.019042969,0.45117188,0.0,0.89208984
17/07/11 05:05:59:963,108,-0.7663574,0.03149414,0.5661621,-0.036183655,-0.04576168,0.0063853506,0.019042969,0.45117188,0.0,0.89208984
17/07/11 05:05:59:974,119,-0.7663574,0.03149414,0.5661621,-0.036183655,-0.04576168,0.0063853506,0.019042969,0.45117188,0.0,0.89208984
17/07/11 05:05:59:979,124,-0.7614746,0.033447266,0.56518555,-0.03511943,-0.04576168,0.0053211255,0.019042969,0.45166016,0.0,0.89160156
17/07/11 05:05:59:985,130,-0.7702637,0.033447266,0.5625,-0.03511943,-0.044697456,0.0074495757,0.019042969,0.45117188,0.0,0.89208984
17/07/11 05:05:59:990,135,-0.77490234,0.03491211,0.5637207,-0.03511943,-0.044697456,0.0074495757,0.019042969,0.45166016,0.0,0.89160156
17/07/11 05:05:59:995,140,-0.77490234,0.03491211,0.5637207,-0.03511943,-0.044697456,0.0074495757,0.019042969,0.45166016,0.0,0.89160156
17/07/11 05:06:00:000,145,-0.77490234,0.03491211,0.5637207,-0.03511943,-0.044697456,0.0074495757,0.019042969,0.45166016,0.0,0.89160156
17/07/11 05:06:00:005,150,-0.77490234,0.03491211,0.5637207,-0.03511943,-0.044697456,0.0074495757,0.019042969,0.45166016,0.0,0.89160156
17/07/11 05:06:00:010,155,-0.77490234,0.03491211,0.5637207,-0.03511943,-0.044697456,0.0074495757,0.019042969,0.45166016,0.0,0.89160156
17/07/11 05:06:00:015,160,-0.77490234,0.03491211,0.5637207,-0.03511943,-0.044697456,0.0074495757,0.019042969,0.45166016,0.0,0.89160156
17/07/11 05:06:00:021,166,-0.77490234,0.03491211,0.5637207,-0.03511943,-0.044697456,0.0074495757,0.019042969,0.45166016,0.0,0.89160156
17/07/11 05:06:00:026,171,-0.76538086,0.03540039,0.5612793,-0.03511943,-0.044697456,0.0042569004,0.019042969,0.45117188,0.0,0.89208984
17/07/11 05:06:00:043,188,-0.76538086,0.03540039,0.5612793,-0.03511943,-0.044697456,0.0042569004,0.019042969,0.45117188,0.0,0.89208984
17/07/11 05:06:00:048,193,-0.7709961,0.034179688,0.5612793,-0.03511943,-0.044697456,0.0042569004,0.01953125,0.4506836,4.8828125E-4,0.89208984
17/07/11 05:06:00:054,199,-0.7709961,0.034179688,0.5612793,-0.03511943,-0.04363323,0.0053211255,0.020019531,0.45117188,4.8828125E-4,0.89208984
17/07/11 05:06:00:059,204,-0.765625,0.032714844,0.5632324,-0.03511943,-0.044697456,0.0053211255,0.020019531,0.45117188,4.8828125E-4,0.89208984
17/07/11 05:06:00:064,209,-0.765625,0.032714844,0.5632324,-0.03511943,-0.044697456,0.0053211255,0.020019531,0.45166016,4.8828125E-4,0.89160156
17/07/11 05:06:00:069,214,-0.7705078,0.032470703,0.56225586,-0.03511943,-0.044697456,0.0063853506,0.01953125,0.45117188,4.8828125E-4,0.89208984
17/07/11 05:06:00:075,220,-0.7705078,0.032470703,0.56225586,-0.03511943,-0.044697456,0.0063853506,0.01953125,0.45117188,4.8828125E-4,0.89208984
17/07/11 05:06:00:081,226,-0.76293945,0.032470703,0.5583496,-0.03511943,-0.04363323,0.0053211255,0.019042969,0.45166016,0.0,0.89160156
17/07/11 05:06:00:086,231,-0.76293945,0.032470703,0.5583496,-0.03511943,-0.04363323,0.0053211255,0.019042969,0.45166016,0.0,0.89160156
17/07/11 05:06:00:091,236,-0.76293945,0.032470703,0.5583496,-0.03511943,-0.04363323,0.0053211255,0.019042969,0.45166016,0.0,0.89160156
17/07/11 05:06:00:097,242,-0.76293945,0.032470703,0.5583496,-0.03511943,-0.04363323,0.0053211255,0.019042969,0.45166016,0.0,0.89160156
17/07/11 05:06:00:102,247,-0.7680664,0.034423828,0.5666504,-0.03511943,-0.04576168,0.0063853506,0.018554688,0.45214844,0.0,0.89160156
17/07/11 05:06:00:122,267,-0.7692871,0.035888672,0.57006836,-0.036183655,-0.04576168,0.0053211255,0.01953125,0.45117188,4.8828125E-4,0.89208984
17/07/11 05:06:00:128,273,-0.7675781,0.033203125,0.5625,-0.036183655,-0.04576168,0.0053211255,0.01953125,0.4506836,4.8828125E-4,0.89208984
17/07/11 05:06:00:133,278,-0.76831055,0.03466797,0.5637207,-0.03511943,-0.044697456,0.0053211255,0.01953125,0.45117188,4.8828125E-4,0.89208984
17/07/11 05:06:00:138,283,-0.76831055,0.03466797,0.5637207,-0.03511943,-0.044697456,0.0053211255,0.01953125,0.45117188,4.8828125E-4,0.89208984
17/07/11 05:06:00:143,288,-0.76831055,0.03466797,0.5637207,-0.03511943,-0.044697456,0.0053211255,0.01953125,0.45117188,4.8828125E-4,0.89208984
17/07/11 05:06:00:152,297,-0.76831055,0.03466797,0.5637207,-0.03511943,-0.044697456,0.0053211255,0.01953125,0.45117188,4.8828125E-4,0.89208984
17/07/11 05:06:00:158,303,-0.76831055,0.03466797,0.5637207,-0.03511943,-0.044697456,0.0053211255,0.01953125,0.45117188,4.8828125E-4,0.89208984
17/07/11 05:06:00:164,309,-0.763916,0.030029297,0.56396484,-0.034055203,-0.044697456,0.0063853506,0.019042969,0.4506836,0.0,0.89208984
17/07/11 05:06:00:172,317,-0.76953125,0.037353516,0.56518555,-0.034055203,-0.044697456,0.0053211255,0.019042969,0.4506836,0.0,0.89208984
17/07/11 05:06:00:190,335,-0.76538086,0.033203125,0.5588379,-0.03511943,-0.044697456,0.0053211255,0.01953125,0.4506836,4.8828125E-4,0.89208984
17/07/11 05:06:00:196,341,-0.76538086,0.033203125,0.5588379,-0.03511943,-0.044697456,0.0053211255,0.01953125,0.4506836,4.8828125E-4,0.89208984
17/07/11 05:06:00:202,347,-0.76953125,0.032226563,0.5629883,-0.03511943,-0.044697456,0.0063853506,0.01953125,0.45166016,4.8828125E-4,0.89208984
17/07/11 05:06:00:207,352,-0.76953125,0.032226563,0.5629883,-0.03511943,-0.044697456,0.0063853506,0.01953125,0.45166016,4.8828125E-4,0.89208984
17/07/11 05:06:00:212,357,-0.76660156,0.032226563,0.56811523,-0.03511943,-0.044697456,0.0053211255,0.019042969,0.45166016,0.0,0.89160156
17/07/11 05:06:00:217,362,-0.76660156,0.032226563,0.56811523,-0.03511943,-0.044697456,0.0053211255,0.019042969,0.45166016,0.0,0.89160156
17/07/11 05:06:00:222,367,-0.76660156,0.032226563,0.56811523,-0.03511943,-0.044697456,0.0053211255,0.019042969,0.45166016,0.0,0.89160156
17/07/11 05:06:00:227,372,-0.76660156,0.032226563,0.56811523,-0.03511943,-0.044697456,0.0053211255,0.019042969,0.45166016,0.0,0.89160156
17/07/11 05:06:00:232,377,-0.76660156,0.032226563,0.56811523,-0.03511943,-0.044697456,0.0053211255,0.019042969,0.45166016,0.0,0.89160156
17/07/11 05:06:00:237,382,-0.76660156,0.032226563,0.56811523,-0.03511943,-0.044697456,0.0053211255,0.019042969,0.45166016,0.0,0.89160156
17/07/11 05:06:00:242,387,-0.76660156,0.032226563,0.56811523,-0.03511943,-0.044697456,0.0053211255,0.019042969,0.45166016,0.0,0.89160156
17/07/11 05:06:00:247,392,-0.77246094,0.031982422,0.564209,-0.03511943,-0.04576168,0.0053211255,0.019042969,0.45117188,0.0,0.89208984
17/07/11 05:06:00:252,397,-0.77368164,0.03540039,0.56030273,-0.03511943,-0.04576168,0.0063853506,0.019042969,0.45214844,0.0,0.89160156
17/07/11 05:06:00:257,402,-0.77368164,0.03540039,0.56030273,-0.03511943,-0.04576168,0.0063853506,0.019042969,0.45214844,0.0,0.89160156
17/07/11 05:06:00:262,407,-0.7675781,0.03149414,0.5654297,-0.03511943,-0.046825904,0.0053211255,0.019042969,0.45263672,0.0,0.89160156
17/07/11 05:06:00:267,412,-0.7675781,0.03149414,0.5654297,-0.03511943,-0.046825904,0.0053211255,0.019042969,0.45263672,0.0,0.89160156
17/07/11 05:06:00:272,417,-0.765625,0.028320313,0.5649414,-0.034055203,-0.04576168,0.0053211255,0.019042969,0.45166016,0.0,0.89160156
17/07/11 05:06:00:277,422,-0.765625,0.028320313,0.5649414,-0.034055203,-0.04576168,0.0053211255,0.019042969,0.45166016,0.0,0.89160156
17/07/11 05:06:00:282,427,-0.77001953,0.03173828,0.5637207,-0.03511943,-0.044697456,0.0063853506,0.018554688,0.45166016,0.0,0.89160156
17/07/11 05:06:00:287,432,-0.77001953,0.03173828,0.5637207,-0.03511943,-0.044697456,0.0063853506,0.018554688,0.45166016,0.0,0.89160156
17/07/11 05:06:00:292,437,-0.7727051,0.034179688,0.5632324,-0.03511943,-0.044697456,0.0074495757,0.018554688,0.45214844,0.0,0.89160156
17/07/11 05:06:00:297,442,-0.7727051,0.034179688,0.5632324,-0.03511943,-0.044697456,0.0074495757,0.018554688,0.45214844,0.0,0.89160156
17/07/11 05:06:00:302,447,-0.7727051,0.034179688,0.5632324,-0.03511943,-0.044697456,0.0074495757,0.018554688,0.45214844,0.0,0.89160156
17/07/11 05:06:00:308,453,-0.7727051,0.034179688,0.5632324,-0.03511943,-0.044697456,0.0074495757,0.018554688,0.45214844,0.0,0.89160156
17/07/11 05:06:00:316,461,-0.7727051,0.034179688,0.5632324,-0.03511943,-0.044697456,0.0074495757,0.018554688,0.45214844,0.0,0.89160156
17/07/11 05:06:00:322,467,-0.7727051,0.034179688,0.5632324,-0.03511943,-0.044697456,0.0074495757,0.018554688,0.45214844,0.0,0.89160156
17/07/11 05:06:00:327,472,-0.7663574,0.033935547,0.56347656,-0.036183655,-0.04576168,0.0042569004,0.019042969,0.45263672,0.0,0.89160156
17/07/11 05:06:00:332,477,-0.7609863,0.030029297,0.5649414,-0.03511943,-0.04576168,0.0042569004,0.018554688,0.45214844,0.0,0.89160156
17/07/11 05:06:00:337,482,-0.7609863,0.030029297,0.5649414,-0.03511943,-0.04576168,0.0042569004,0.018554688,0.45214844,0.0,0.89160156
17/07/11 05:06:00:343,488,-0.76904297,0.032470703,0.5612793,-0.03511943,-0.04576168,0.0074495757,0.018554688,0.45117188,0.0,0.89208984
17/07/11 05:06:00:348,493,-0.76904297,0.032470703,0.5612793,-0.03511943,-0.04576168,0.0074495757,0.018554688,0.45117188,0.0,0.89208984
17/07/11 05:06:00:353,498,-0.76904297,0.032470703,0.5612793,-0.03511943,-0.04576168,0.0074495757,0.018554688,0.45117188,0.0,0.89208984
17/07/11 05:06:00:359,504,-0.76904297,0.032470703,0.5612793,-0.03511943,-0.04576168,0.0074495757,0.018554688,0.45117188,0.0,0.89208984
17/07/11 05:06:00:364,509,-0.76904297,0.032470703,0.5612793,-0.03511943,-0.04576168,0.0074495757,0.018554688,0.45117188,0.0,0.89208984
17/07/11 05:06:00:369,514,-0.76904297,0.032470703,0.5612793,-0.03511943,-0.04576168,0.0074495757,0.018554688,0.45117188,0.0,0.89208984
17/07/11 05:06:00:374,519,-0.77563477,0.033447266,0.56225586,-0.034055203,-0.04576168,0.0074495757,0.018554688,0.45214844,0.0,0.89160156
17/07/11 05:06:00:380,525,-0.7714844,0.03491211,0.5678711,-0.03511943,-0.04576168,0.0074495757,0.018554688,0.45117188,0.0,0.89208984
17/07/11 05:06:00:385,530,-0.7714844,0.03491211,0.5678711,-0.03511943,-0.04576168,0.0074495757,0.018554688,0.45117188,0.0,0.89208984
17/07/11 05:06:00:390,535,-0.77612305,0.03491211,0.56347656,-0.034055203,-0.04576168,0.0053211255,0.019042969,0.45117188,0.0,0.89208984
17/07/11 05:06:00:395,540,-0.77612305,0.03491211,0.56347656,-0.034055203,-0.04576168,0.0053211255,0.019042969,0.45117188,0.0,0.89208984
17/07/11 05:06:00:400,545,-0.77612305,0.03491211,0.56347656,-0.034055203,-0.04576168,0.0053211255,0.019042969,0.45117188,0.0,0.89208984
17/07/11 05:06:00:405,550,-0.77612305,0.03491211,0.56347656,-0.034055203,-0.04576168,0.0053211255,0.019042969,0.45117188,0.0,0.89208984
17/07/11 05:06:00:410,555,-0.77612305,0.03491211,0.56347656,-0.034055203,-0.04576168,0.0053211255,0.019042969,0.45117188,0.0,0.89208984
17/07/11 05:06:00:415,560,-0.77612305,0.03491211,0.56347656,-0.034055203,-0.04576168,0.0053211255,0.019042969,0.45117188,0.0,0.89208984
17/07/11 05:06:00:420,565,-0.77612305,0.03491211,0.56347656,-0.034055203,-0.04576168,0.0053211255,0.019042969,0.45117188,0.0,0.89208984
17/07/11 05:06:00:425,570,-0.77001953,0.032226563,0.5612793,-0.036183655,-0.044697456,0.0063853506,0.01953125,0.45166016,0.0,0.89160156
17/07/11 05:06:00:430,575,-0.7709961,0.03125,0.56518555,-0.036183655,-0.044697456,0.0063853506,0.019042969,0.45166016,0.0,0.89160156
17/07/11 05:06:00:435,580,-0.76586914,0.032226563,0.56347656,-0.03511943,-0.046825904,0.0053211255,0.018066406,0.45166016,0.0,0.89160156
17/07/11 05:06:00:440,585,-0.76708984,0.03540039,0.56225586,-0.03511943,-0.046825904,0.0053211255,0.018066406,0.45166016,0.0,0.89160156
17/07/11 05:06:00:445,590,-0.76708984,0.03540039,0.56225586,-0.03511943,-0.046825904,0.0053211255,0.018554688,0.45117188,0.0,0.89208984
17/07/11 05:06:00:450,595,-0.77197266,0.032714844,0.560791,-0.03511943,-0.04576168,0.0063853506,0.018554688,0.45117188,0.0,0.89208984
17/07/11 05:06:00:455,600,-0.77197266,0.032714844,0.560791,-0.03511943,-0.04576168,0.0063853506,0.019042969,0.45117188,0.0,0.89208984
17/07/11 05:06:00:460,605,-0.76660156,0.032714844,0.56103516,-0.032990977,-0.04576168,0.0053211255,0.019042969,0.45117188,0.0,0.89208984
17/07/11 05:06:00:465,610,-0.76660156,0.032714844,0.56103516,-0.032990977,-0.04576168,0.0053211255,0.019042969,0.45166016,0.0,0.89160156
17/07/11 05:06:00:470,615,-0.76782227,0.034423828,0.5649414,-0.03511943,-0.044697456,0.0063853506,0.019042969,0.45166016,0.0,0.89160156
17/07/11 05:06:00:475,620,-0.76782227,0.034423828,0.5649414,-0.03511943,-0.044697456,0.0063853506,0.018554688,0.45214844,0.0,0.89160156
17/07/11 05:06:00:480,625,-0.77368164,0.034179688,0.5671387,-0.034055203,-0.04576168,0.0074495757,0.019042969,0.45166016,0.0,0.89160156
17/07/11 05:06:00:485,630,-0.77368164,0.034179688,0.5671387,-0.034055203,-0.04576168,0.0074495757,0.019042969,0.45166016,0.0,0.89160156
17/07/11 05:06:00:490,635,-0.77368164,0.034179688,0.5671387,-0.034055203,-0.04576168,0.0074495757,0.019042969,0.45166016,0.0,0.89160156
17/07/11 05:06:00:496,641,-0.77368164,0.034179688,0.5671387,-0.034055203,-0.04576168,0.0074495757,0.019042969,0.45166016,0.0,0.89160156
17/07/11 05:06:00:501,646,-0.77368164,0.034179688,0.5671387,-0.034055203,-0.04576168,0.0074495757,0.019042969,0.45166016,0.0,0.89160156
17/07/11 05:06:00:506,651,-0.77368164,0.034179688,0.5671387,-0.034055203,-0.04576168,0.0074495757,0.019042969,0.45166016,0.0,0.89160156
17/07/11 05:06:00:512,657,-0.77368164,0.034179688,0.5671387,-0.034055203,-0.04576168,0.0074495757,0.019042969,0.45166016,0.0,0.89160156
17/07/11 05:06:00:517,662,-0.767334,0.033203125,0.55859375,-0.03511943,-0.04576168,0.0063853506,0.01953125,0.45214844,4.8828125E-4,0.89160156
17/07/11 05:06:00:523,668,-0.7739258,0.036621094,0.5661621,-0.03511943,-0.044697456,0.0074495757,0.01953125,0.45166016,0.0,0.89160156
17/07/11 05:06:00:528,673,-0.7663574,0.033691406,0.56811523,-0.03511943,-0.04576168,0.0042569004,0.020019531,0.45166016,4.8828125E-4,0.89160156
17/07/11 05:06:00:535,680,-0.7648926,0.032958984,0.5620117,-0.03511943,-0.044697456,0.0053211255,0.020019531,0.45117188,4.8828125E-4,0.89208984
17/07/11 05:06:00:540,685,-0.7648926,0.032958984,0.5620117,-0.03511943,-0.044697456,0.0053211255,0.020019531,0.45117188,4.8828125E-4,0.89208984
17/07/11 05:06:00:545,690,-0.7648926,0.032958984,0.5620117,-0.03511943,-0.044697456,0.0053211255,0.020019531,0.45117188,4.8828125E-4,0.89208984
17/07/11 05:06:00:550,695,-0.7648926,0.032958984,0.5620117,-0.03511943,-0.044697456,0.0053211255,0.020019531,0.45117188,4.8828125E-4,0.89208984
17/07/11 05:06:00:556,701,-0.7648926,0.032958984,0.5620117,-0.03511943,-0.044697456,0.0053211255,0.020019531,0.45117188,4.8828125E-4,0.89208984
17/07/11 05:06:00:561,706,-0.7648926,0.032958984,0.5620117,-0.03511943,-0.044697456,0.0053211255,0.020019531,0.45117188,4.8828125E-4,0.89208984
17/07/11 05:06:00:566,711,-0.77563477,0.03515625,0.56152344,-0.034055203,-0.044697456,0.0063853506,0.019042969,0.45117188,0.0,0.89208984
17/07/11 05:06:00:571,716,-0.7680664,0.03173828,0.5625,-0.034055203,-0.044697456,0.0053211255,0.019042969,0.45117188,0.0,0.89208984
17/07/11 05:06:00:576,721,-0.7680664,0.03173828,0.5625,-0.03511943,-0.044697456,0.0063853506,0.018554688,0.45166016,0.0,0.89160156
17/07/11 05:06:00:581,726,-0.7705078,0.031982422,0.5600586,-0.03511943,-0.044697456,0.0063853506,0.018066406,0.45214844,0.0,0.89160156
17/07/11 05:06:00:586,731,-0.7705078,0.031982422,0.5600586,-0.03511943,-0.044697456,0.0063853506,0.018066406,0.45214844,0.0,0.89160156
17/07/11 05:06:00:591,736,-0.76586914,0.034423828,0.56274414,-0.03511943,-0.04576168,0.0042569004,0.018554688,0.45263672,0.0,0.8911133
17/07/11 05:06:00:596,741,-0.76586914,0.034423828,0.56274414,-0.03511943,-0.04576168,0.0042569004,0.018554688,0.45263672,0.0,0.8911133
17/07/11 05:06:00:602,747,-0.76782227,0.03125,0.56030273,-0.036183655,-0.044697456,0.0053211255,0.018554688,0.45214844,0.0,0.89160156
17/07/11 05:06:00:608,753,-0.76782227,0.03125,0.56030273,-0.036183655,-0.044697456,0.0053211255,0.018554688,0.45214844,0.0,0.89160156
17/07/11 05:06:00:615,760,-0.77441406,0.032958984,0.5637207,-0.034055203,-0.044697456,0.0053211255,0.018554688,0.45263672,0.0,0.89160156
17/07/11 05:06:00:620,765,-0.77441406,0.032958984,0.5637207,-0.034055203,-0.044697456,0.0053211255,0.018554688,0.45263672,0.0,0.89160156
17/07/11 05:06:00:625,770,-0.76660156,0.033935547,0.5629883,-0.03511943,-0.04576168,0.0042569004,0.018554688,0.453125,0.0,0.8911133
17/07/11 05:06:00:630,775,-0.76660156,0.033935547,0.5629883,-0.03511943,-0.04576168,0.0042569004,0.018554688,0.453125,0.0,0.8911133
17/07/11 05:06:00:635,780,-0.7675781,0.029541016,0.5678711,-0.03511943,-0.046825904,0.0063853506,0.019042969,0.45214844,0.0,0.89160156
17/07/11 05:06:00:640,785,-0.77246094,0.034423828,0.55859375,-0.03511943,-0.04576168,0.0063853506,0.018554688,0.45166016,0.0,0.89160156
17/07/11 05:06:00:645,790,-0.77246094,0.034423828,0.55859375,-0.03511943,-0.04576168,0.0063853506,0.018554688,0.45166016,0.0,0.89160156
17/07/11 05:06:00:650,795,-0.7729492,0.03125,0.5656738,-0.03511943,-0.044697456,0.0053211255,0.019042969,0.45263672,0.0,0.89160156
17/07/11 05:06:00:655,800,-0.7729492,0.03125,0.5656738,-0.03511943,-0.044697456,0.0053211255,0.019042969,0.45263672,0.0,0.89160156
17/07/11 05:06:00:660,805,-0.7729492,0.03125,0.5656738,-0.03511943,-0.044697456,0.0053211255,0.019042969,0.45263672,0.0,0.89160156
17/07/11 05:06:00:667,812,-0.76782227,0.033935547,0.56103516,-0.03511943,-0.04576168,0.0053211255,0.018066406,0.45214844,0.0,0.89160156
17/07/11 05:06:00:672,817,-0.76953125,0.03149414,0.5649414,-0.03511943,-0.04363323,0.0074495757,0.019042969,0.45214844,0.0,0.89160156
17/07/11 05:06:00:677,822,-0.76953125,0.03149414,0.5649414,-0.03511943,-0.04363323,0.0074495757,0.019042969,0.45214844,0.0,0.89160156
17/07/11 05:06:00:682,827,-0.7692871,0.028564453,0.56152344,-0.03511943,-0.044697456,0.0063853506,0.018554688,0.45166016,0.0,0.89160156
17/07/11 05:06:00:687,832,-0.7692871,0.028564453,0.56152344,-0.03511943,-0.044697456,0.0063853506,0.018554688,0.45166016,0.0,0.89160156
17/07/11 05:06:00:692,837,-0.767334,0.034179688,0.5629883,-0.03511943,-0.04576168,0.0042569004,0.018066406,0.45214844,0.0,0.89160156
17/07/11 05:06:00:698,843,-0.767334,0.034179688,0.5629883,-0.03511943,-0.04576168,0.0042569004,0.018066406,0.45214844,0.0,0.89160156
17/07/11 05:06:00:703,848,-0.767334,0.034179688,0.5629883,-0.03511943,-0.04576168,0.0042569004,0.018066406,0.45214844,0.0,0.89160156
17/07/11 05:06:00:708,853,-0.767334,0.034179688,0.5629883,-0.03511943,-0.04576168,0.0042569004,0.018066406,0.45214844,0.0,0.89160156
17/07/11 05:06:00:713,858,-0.767334,0.034179688,0.5629883,-0.03511943,-0.04576168,0.0042569004,0.018066406,0.45214844,0.0,0.89160156
17/07/11 05:06:00:719,864,-0.767334,0.034179688,0.5629883,-0.03511943,-0.04576168,0.0042569004,0.018066406,0.45214844,0.0,0.89160156
17/07/11 05:06:00:724,869,-0.76416016,0.030273438,0.5686035,-0.03511943,-0.046825904,0.0053211255,0.018066406,0.45214844,0.0,0.89160156
17/07/11 05:06:00:729,874,-0.76416016,0.030273438,0.5686035,-0.03511943,-0.046825904,0.0053211255,0.018554688,0.45166016,0.0,0.89160156
17/07/11 05:06:00:734,879,-0.76586914,0.032470703,0.56274414,-0.036183655,-0.04363323,0.0063853506,0.019042969,0.45117188,0.0,0.89208984
17/07/11 05:06:00:739,884,-0.76586914,0.032470703,0.56274414,-0.036183655,-0.04363323,0.0063853506,0.019042969,0.45117188,0.0,0.89208984
17/07/11 05:06:00:744,889,-0.7668457,0.035888672,0.560791,-0.03511943,-0.044697456,0.0053211255,0.018554688,0.45117188,0.0,0.89208984
17/07/11 05:06:00:750,895,-0.7668457,0.035888672,0.560791,-0.03511943,-0.044697456,0.0053211255,0.018554688,0.45117188,0.0,0.89208984
17/07/11 05:06:00:755,900,-0.7729492,0.032714844,0.56347656,-0.036183655,-0.04576168,0.0063853506,0.019042969,0.45166016,0.0,0.89208984
17/07/11 05:06:00:760,905,-0.7729492,0.032714844,0.56347656,-0.036183655,-0.04576168,0.0063853506,0.019042969,0.45166016,0.0,0.89208984
17/07/11 05:06:00:765,910,-0.7729492,0.032714844,0.56347656,-0.036183655,-0.04576168,0.0063853506,0.019042969,0.45166016,0.0,0.89208984
17/07/11 05:06:00:770,915,-0.7729492,0.032714844,0.56347656,-0.036183655,-0.04576168,0.0063853506,0.019042969,0.45166016,0.0,0.89208984
17/07/11 05:06:00:776,921,-0.7729492,0.032714844,0.56347656,-0.036183655,-0.04576168,0.0063853506,0.019042969,0.45166016,0.0,0.89208984
17/07/11 05:06:00:782,927,-0.7729492,0.032714844,0.56347656,-0.036183655,-0.04576168,0.0063853506,0.019042969,0.45166016,0.0,0.89208984
17/07/11 05:06:00:787,932,-0.7705078,0.03100586,0.56152344,-0.034055203,-0.044697456,0.0074495757,0.019042969,0.4506836,0.0,0.89208984
17/07/11 05:06:00:792,937,-0.7734375,0.032958984,0.5625,-0.034055203,-0.044697456,0.0053211255,0.018554688,0.45166016,0.0,0.89208984
17/07/11 05:06:00:798,943,-0.7734375,0.032958984,0.5625,-0.034055203,-0.044697456,0.0053211255,0.018554688,0.45166016,0.0,0.89208984
17/07/11 05:06:00:803,948,-0.7697754,0.034423828,0.56152344,-0.03511943,-0.044697456,0.0053211255,0.018554688,0.45214844,0.0,0.89160156
17/07/11 05:06:00:808,953,-0.7697754,0.034423828,0.56152344,-0.03511943,-0.044697456,0.0053211255,0.018554688,0.45214844,0.0,0.89160156
17/07/11 05:06:00:814,959,-0.7697754,0.034423828,0.56152344,-0.03511943,-0.044697456,0.0053211255,0.018554688,0.45214844,0.0,0.89160156
17/07/11 05:06:00:819,964,-0.7697754,0.034423828,0.56152344,-0.03511943,-0.044697456,0.0053211255,0.018554688,0.45214844,0.0,0.89160156
17/07/11 05:06:00:825,970,-0.7697754,0.034423828,0.56152344,-0.03511943,-0.044697456,0.0053211255,0.018554688,0.45214844,0.0,0.89160156
17/07/11 05:06:00:830,975,-0.7697754,0.034423828,0.56152344,-0.03511943,-0.044697456,0.0053211255,0.018554688,0.45214844,0.0,0.89160156
17/07/11 05:06:00:836,981,-0.7709961,0.035888672,0.5666504,-0.036183655,-0.044697456,0.0053211255,0.01953125,0.45214844,0.0,0.89160156
17/07/11 05:06:00:841,986,-0.76782227,0.033935547,0.5637207,-0.03511943,-0.04576168,0.0063853506,0.01953125,0.45166016,4.8828125E-4,0.89160156
17/07/11 05:06:00:846,991,-0.7675781,0.033447266,0.56274414,-0.03511943,-0.04576168,0.0053211255,0.019042969,0.45117188,0.0,0.89208984
17/07/11 05:06:00:851,996,-0.76708984,0.033203125,0.56396484,-0.03511943,-0.04576168,0.0063853506,0.019042969,0.45166016,0.0,0.89160156
17/07/11 05:06:00:856,1001,-0.76708984,0.033203125,0.56396484,-0.03511943,-0.04576168,0.0063853506,0.019042969,0.45166016,0.0,0.89160156
17/07/11 05:06:00:861,1006,-0.7687988,0.032470703,0.56518555,-0.036183655,-0.04576168,0.0063853506,0.019042969,0.45166016,0.0,0.89160156
17/07/11 05:06:00:867,1012,-0.7687988,0.032470703,0.56518555,-0.036183655,-0.04576168,0.0063853506,0.019042969,0.45117188,0.0,0.89208984
17/07/11 05:06:00:872,1017,-0.765625,0.034179688,0.5710449,-0.036183655,-0.04576168,0.0053211255,0.018554688,0.45117188,0.0,0.89208984
17/07/11 05:06:00:877,1022,-0.765625,0.034179688,0.5710449,-0.036183655,-0.04576168,0.0053211255,0.018554688,0.45117188,0.0,0.89208984
17/07/11 05:06:00:882,1027,-0.7714844,0.032226563,0.564209,-0.03511943,-0.044697456,0.0063853506,0.018554688,0.4506836,0.0,0.8925781
17/07/11 05:06:00:887,1032,-0.7714844,0.032226563,0.564209,-0.03511943,-0.044697456,0.0063853506,0.018554688,0.4506836,0.0,0.8925781
17/07/11 05:06:00:892,1037,-0.7714844,0.032226563,0.564209,-0.03511943,-0.044697456,0.0063853506,0.018554688,0.4506836,0.0,0.8925781
17/07/11 05:06:00:897,1042,-0.7636719,0.03125,0.5637207,-0.03511943,-0.04576168,0.0053211255,0.018554688,0.45117188,0.0,0.89208984
17/07/11 05:06:00:902,1047,-0.76831055,0.032958984,0.56225586,-0.034055203,-0.04576168,0.0053211255,0.018554688,0.4506836,0.0,0.8925781
17/07/11 05:06:00:907,1052,-0.76831055,0.032958984,0.56225586,-0.034055203,-0.04576168,0.0053211255,0.018554688,0.4506836,0.0,0.8925781
17/07/11 05:06:00:912,1057,-0.7727051,0.033203125,0.5654297,-0.03511943,-0.04576168,0.0063853506,0.018554688,0.45117188,0.0,0.89208984
17/07/11 05:06:00:917,1062,-0.7727051,0.033203125,0.5654297,-0.03511943,-0.04576168,0.0063853506,0.018554688,0.45117188,0.0,0.89208984
17/07/11 05:06:00:923,1068,-0.7727051,0.033203125,0.5654297,-0.03511943,-0.04576168,0.0063853506,0.018554688,0.45117188,0.0,0.89208984
17/07/11 05:06:00:928,1073,-0.7727051,0.033203125,0.5654297,-0.03511943,-0.04576168,0.0063853506,0.018554688,0.45117188,0.0,0.89208984
17/07/11 05:06:00:933,1078,-0.7727051,0.033203125,0.5654297,-0.03511943,-0.04576168,0.0063853506,0.018554688,0.45117188,0.0,0.89208984
17/07/11 05:06:00:938,1083,-0.7727051,0.033203125,0.5654297,-0.03511943,-0.04576168,0.0063853506,0.018554688,0.45117188,0.0,0.89208984
17/07/11 05:06:00:943,1088,-0.76708984,0.03540039,0.5673828,-0.03511943,-0.04576168,0.0053211255,0.019042969,0.45166016,0.0,0.89160156
17/07/11 05:06:00:948,1093,-0.77001953,0.03466797,0.5671387,-0.03511943,-0.044697456,0.0063853506,0.018554688,0.4506836,0.0,0.89208984
17/07/11 05:06:00:953,1098,-0.767334,0.033447266,0.56591797,-0.03511943,-0.04576168,0.0063853506,0.01953125,0.4506836,4.8828125E-4,0.89208984
17/07/11 05:06:00:958,1103,-0.767334,0.033447266,0.56591797,-0.03511943,-0.04576168,0.0063853506,0.01953125,0.4506836,4.8828125E-4,0.89208984
17/07/11 05:06:00:963,1108,-0.767334,0.033447266,0.56591797,-0.03511943,-0.04576168,0.0063853506,0.01953125,0.4506836,4.8828125E-4,0.89208984
17/07/11 05:06:00:968,1113,-0.767334,0.033447266,0.56591797,-0.03511943,-0.04576168,0.0063853506,0.01953125,0.4506836,4.8828125E-4,0.89208984
17/07/11 05:06:00:973,1118,-0.767334,0.033447266,0.56591797,-0.03511943,-0.04576168,0.0063853506,0.01953125,0.4506836,4.8828125E-4,0.89208984
17/07/11 05:06:00:978,1123,-0.767334,0.033447266,0.56591797,-0.03511943,-0.04576168,0.0063853506,0.01953125,0.4506836,4.8828125E-4,0.89208984
17/07/11 05:06:00:983,1128,-0.76708984,0.034179688,0.56152344,-0.036183655,-0.04576168,0.0042569004,0.019042969,0.4501953,0.0,0.8925781
17/07/11 05:06:00:988,1133,-0.76708984,0.033447266,0.56030273,-0.03511943,-0.044697456,0.0042569004,0.019042969,0.45117188,0.0,0.89208984
17/07/11 05:06:00:993,1138,-0.7692871,0.028808594,0.56347656,-0.03511943,-0.04576168,0.0063853506,0.019042969,0.45166016,0.0,0.89160156
17/07/11 05:06:00:999,1144,-0.7692871,0.028808594,0.56347656,-0.03511943,-0.04576168,0.0063853506,0.019042969,0.45166016,0.0,0.89160156
17/07/11 05:06:01:005,1150,-0.7685547,0.034423828,0.5612793,-0.032990977,-0.04576168,0.0063853506,0.018554688,0.45166016,0.0,0.89160156
17/07/11 05:06:01:010,1155,-0.7685547,0.031982422,0.56689453,-0.032990977,-0.04576168,0.0063853506,0.018554688,0.45166016,0.0,0.89160156
17/07/11 05:06:01:015,1160,-0.7722168,0.031982422,0.56689453,-0.034055203,-0.044697456,0.0063853506,0.019042969,0.45214844,0.0,0.89160156
17/07/11 05:06:01:020,1165,-0.767334,0.03540039,0.56518555,-0.032990977,-0.04576168,0.0042569004,0.018554688,0.45166016,0.0,0.89160156
17/07/11 05:06:01:025,1170,-0.767334,0.03540039,0.56518555,-0.032990977,-0.04576168,0.0042569004,0.018554688,0.45166016,0.0,0.89160156
17/07/11 05:06:01:030,1175,-0.7685547,0.03100586,0.5678711,-0.03511943,-0.046825904,0.0053211255,0.019042969,0.45117188,0.0,0.89208984
17/07/11 05:06:01:035,1180,-0.7685547,0.03100586,0.5678711,-0.03511943,-0.046825904,0.0053211255,0.019042969,0.45117188,0.0,0.89208984
17/07/11 05:06:01:041,1186,-0.7697754,0.030029297,0.5666504,-0.036183655,-0.044697456,0.0053211255,0.018554688,0.4506836,0.0,0.89208984
17/07/11 05:06:01:046,1191,-0.7697754,0.030029297,0.5666504,-0.036183655,-0.044697456,0.0053211255,0.018554688,0.4506836,0.0,0.89208984
17/07/11 05:06:01:051,1196,-0.7714844,0.036132813,0.5612793,-0.03511943,-0.04576168,0.0063853506,0.018066406,0.4506836,0.0,0.89208984
17/07/11 05:06:01:056,1201,-0.7714844,0.036132813,0.5612793,-0.03511943,-0.04576168,0.0063853506,0.018066406,0.4506836,0.0,0.89208984
17/07/11 05:06:01:061,1206,-0.7636719,0.032470703,0.56689453,-0.03511943,-0.04576168,0.0063853506,0.018554688,0.45117188,0.0,0.89208984
17/07/11 05:06:01:066,1211,-0.7636719,0.032470703,0.56689453,-0.03511943,-0.04576168,0.0063853506,0.018554688,0.45117188,0.0,0.89208984
17/07/11 05:06:01:071,1216,-0.77368164,0.036376953,0.56103516,-0.03511943,-0.044697456,0.008513801,0.018554688,0.4506836,0.0,0.89208984
17/07/11 05:06:01:076,1221,-0.77368164,0.036376953,0.56103516,-0.03511943,-0.044697456,0.008513801,0.018554688,0.4506836,0.0,0.89208984
17/07/11 05:06:01:082,1227,-0.76831055,0.033447266,0.5644531,-0.03511943,-0.04576168,0.0053211255,0.019042969,0.45117188,0.0,0.89208984
17/07/11 05:06:01:088,1233,-0.76831055,0.033447266,0.5644531,-0.03511943,-0.04576168,0.0053211255,0.019042969,0.45117188,0.0,0.89208984
17/07/11 05:06:01:093,1238,-0.7651367,0.032226563,0.5612793,-0.03511943,-0.044697456,0.0053211255,0.01953125,0.45117188,4.8828125E-4,0.89208984
17/07/11 05:06:01:098,1243,-0.7651367,0.032226563,0.5612793,-0.03511943,-0.044697456,0.0053211255,0.01953125,0.45117188,4.8828125E-4,0.89208984
17/07/11 05:06:01:104,1249,-0.76660156,0.030029297,0.56518555,-0.03511943,-0.044697456,0.0063853506,0.019042969,0.45117188,0.0,0.89208984
17/07/11 05:06:01:109,1254,-0.76660156,0.030029297,0.56518555,-0.03511943,-0.044697456,0.0063853506,0.019042969,0.45117188,0.0,0.89208984
17/07/11 05:06:01:114,1259,-0.76660156,0.030029297,0.56518555,-0.03511943,-0.044697456,0.0063853506,0.019042969,0.45117188,0.0,0.89208984
17/07/11 05:06:01:119,1264,-0.76660156,0.030029297,0.56518555,-0.03511943,-0.044697456,0.0063853506,0.019042969,0.45117188,0.0,0.89208984
17/07/11 05:06:01:124,1269,-0.76660156,0.030029297,0.56518555,-0.03511943,-0.044697456,0.0063853506,0.019042969,0.45117188,0.0,0.89208984
17/07/11 05:06:01:129,1274,-0.76660156,0.030029297,0.56518555,-0.03511943,-0.044697456,0.0063853506,0.019042969,0.45117188,0.0,0.89208984
17/07/11 05:06:01:135,1280,-0.76953125,0.034179688,0.56933594,-0.034055203,-0.04576168,0.0063853506,0.018554688,0.45117188,0.0,0.89208984
17/07/11 05:06:01:140,1285,-0.7680664,0.030273438,0.56152344,-0.037247878,-0.044697456,0.0063853506,0.01953125,0.4506836,4.8828125E-4,0.89208984
17/07/11 05:06:01:145,1290,-0.7722168,0.033447266,0.5629883,-0.034055203,-0.044697456,0.0063853506,0.019042969,0.45117188,0.0,0.89208984
17/07/11 05:06:01:150,1295,-0.76904297,0.033203125,0.5661621,-0.036183655,-0.044697456,0.0042569004,0.019042969,0.45166016,0.0,0.89160156
17/07/11 05:06:01:155,1300,-0.76904297,0.033203125,0.5661621,-0.036183655,-0.044697456,0.0042569004,0.019042969,0.45166016,0.0,0.89160156
17/07/11 05:06:01:160,1305,-0.7631836,0.033691406,0.5612793,-0.03511943,-0.044697456,0.0053211255,0.019042969,0.45117188,0.0,0.89208984
17/07/11 05:06:01:165,1310,-0.7631836,0.033691406,0.5612793,-0.03511943,-0.044697456,0.0053211255,0.019042969,0.45117188,0.0,0.89208984
17/07/11 05:06:01:171,1316,-0.7631836,0.033691406,0.5612793,-0.03511943,-0.044697456,0.0053211255,0.019042969,0.45117188,0.0,0.89208984
17/07/11 05:06:01:176,1321,-0.7631836,0.033691406,0.5612793,-0.03511943,-0.044697456,0.0053211255,0.019042969,0.45117188,0.0,0.89208984
17/07/11 05:06:01:182,1327,-0.7631836,0.033691406,0.5612793,-0.03511943,-0.044697456,0.0053211255,0.019042969,0.45117188,0.0,0.89208984
17/07/11 05:06:01:188,1333,-0.7631836,0.033691406,0.5612793,-0.03511943,-0.044697456,0.0053211255,0.019042969,0.45117188,0.0,0.89208984
17/07/11 05:06:01:194,1339,-0.7631836,0.033691406,0.5612793,-0.03511943,-0.044697456,0.0053211255,0.019042969,0.45117188,0.0,0.89208984
17/07/11 05:06:01:199,1344,-0.767334,0.037841797,0.5637207,-0.03511943,-0.04363323,0.0053211255,0.01953125,0.4506836,4.8828125E-4,0.89208984
17/07/11 05:06:01:204,1349,-0.77246094,0.03149414,0.5629883,-0.036183655,-0.044697456,0.0053211255,0.020019531,0.45166016,4.8828125E-4,0.89160156
17/07/11 05:06:01:210,1355,-0.77319336,0.03100586,0.56347656,-0.03511943,-0.046825904,0.0063853506,0.020019531,0.45214844,4.8828125E-4,0.89160156
17/07/11 05:06:01:217,1362,-0.77319336,0.03100586,0.56347656,-0.03511943,-0.046825904,0.0063853506,0.020019531,0.45214844,4.8828125E-4,0.89160156
17/07/11 05:06:01:222,1367,-0.77319336,0.03100586,0.56347656,-0.03511943,-0.046825904,0.0063853506,0.020019531,0.45214844,4.8828125E-4,0.89160156
17/07/11 05:06:01:227,1372,-0.77319336,0.03100586,0.56347656,-0.03511943,-0.046825904,0.0063853506,0.020019531,0.45214844,4.8828125E-4,0.89160156
17/07/11 05:06:01:232,1377,-0.7753906,0.033203125,0.56152344,-0.034055203,-0.04576168,0.0074495757,0.018554688,0.45214844,0.0,0.89160156
17/07/11 05:06:01:250,1395,-0.76049805,0.032226563,0.56689453,-0.03511943,-0.04576168,0.0053211255,0.018554688,0.45361328,0.0,0.890625
17/07/11 05:06:01:259,1404,-0.77001953,0.037353516,0.564209,-0.03511943,-0.044697456,0.0074495757,0.018554688,0.453125,0.0,0.8911133
17/07/11 05:06:01:264,1409,-0.77001953,0.037353516,0.564209,-0.03511943,-0.044697456,0.0074495757,0.018554688,0.453125,0.0,0.8911133
17/07/11 05:06:01:271,1416,-0.7766113,0.036132813,0.5620117,-0.03511943,-0.04363323,0.0074495757,0.019042969,0.45263672,0.0,0.8911133
17/07/11 05:06:01:276,1421,-0.7766113,0.036132813,0.5620117,-0.03511943,-0.04363323,0.0074495757,0.019042969,0.45263672,0.0,0.8911133
17/07/11 05:06:01:281,1426,-0.7558594,0.033447266,0.5625,-0.036183655,-0.046825904,0.0031926753,0.01953125,0.453125,4.8828125E-4,0.8911133
17/07/11 05:06:01:286,1431,-0.7558594,0.033447266,0.5625,-0.036183655,-0.046825904,0.0031926753,0.01953125,0.453125,4.8828125E-4,0.8911133
17/07/11 05:06:01:291,1436,-0.76538086,0.034179688,0.5625,-0.036183655,-0.04576168,0.0063853506,0.01953125,0.45166016,4.8828125E-4,0.89160156
17/07/11 05:06:01:297,1442,-0.76538086,0.034179688,0.5625,-0.036183655,-0.04576168,0.0063853506,0.01953125,0.45166016,4.8828125E-4,0.89160156
17/07/11 05:06:01:302,1447,-0.7651367,0.032470703,0.56396484,-0.03511943,-0.044697456,0.0053211255,0.01953125,0.45117188,4.8828125E-4,0.89208984
17/07/11 05:06:01:307,1452,-0.7651367,0.032470703,0.56396484,-0.03511943,-0.044697456,0.0053211255,0.01953125,0.45117188,4.8828125E-4,0.89208984
17/07/11 05:06:01:312,1457,-0.7651367,0.032470703,0.56396484,-0.03511943,-0.044697456,0.0053211255,0.01953125,0.45117188,4.8828125E-4,0.89208984
17/07/11 05:06:01:317,1462,-0.7651367,0.032470703,0.56396484,-0.03511943,-0.044697456,0.0053211255,0.01953125,0.45117188,4.8828125E-4,0.89208984
17/07/11 05:06:01:322,1467,-0.7651367,0.032470703,0.56396484,-0.03511943,-0.044697456,0.0053211255,0.01953125,0.45117188,4.8828125E-4,0.89208984
17/07/11 05:06:01:328,1473,-0.7651367,0.032470703,0.56396484,-0.03511943,-0.044697456,0.0053211255,0.01953125,0.45117188,4.8828125E-4,0.89208984
17/07/11 05:06:01:333,1478,-0.7636719,0.033447266,0.5612793,-0.03511943,-0.04576168,0.0053211255,0.018066406,0.45117188,0.0,0.89208984
17/07/11 05:06:01:344,1489,-0.7705078,0.031982422,0.56518555,-0.036183655,-0.04576168,0.0074495757,0.019042969,0.45117188,0.0,0.89208984
17/07/11 05:06:01:350,1495,-0.76171875,0.034179688,0.564209,-0.03511943,-0.044697456,0.0053211255,0.018554688,0.45166016,0.0,0.89208984
17/07/11 05:06:01:357,1502,-0.76171875,0.034179688,0.564209,-0.03511943,-0.044697456,0.0053211255,0.018554688,0.45166016,0.0,0.89208984
17/07/11 05:06:01:362,1507,-0.76171875,0.034179688,0.564209,-0.03511943,-0.044697456,0.0053211255,0.018554688,0.45166016,0.0,0.89208984
17/07/11 05:06:01:367,1512,-0.76171875,0.034179688,0.564209,-0.03511943,-0.044697456,0.0053211255,0.018554688,0.45166016,0.0,0.89208984
17/07/11 05:06:01:372,1517,-0.76171875,0.034179688,0.564209,-0.03511943,-0.044697456,0.0053211255,0.018554688,0.45166016,0.0,0.89208984
17/07/11 05:06:01:377,1522,-0.76171875,0.034179688,0.564209,-0.03511943,-0.044697456,0.0053211255,0.018554688,0.45166016,0.0,0.89208984
17/07/11 05:06:01:382,1527,-0.76171875,0.034179688,0.564209,-0.03511943,-0.044697456,0.0053211255,0.018554688,0.45166016,0.0,0.89208984
17/07/11 05:06:01:387,1532,-0.7800293,0.033691406,0.56347656,-0.03511943,-0.044697456,0.0074495757,0.018554688,0.45117188,0.0,0.89208984
17/07/11 05:06:01:393,1538,-0.77368164,0.036376953,0.56225586,-0.034055203,-0.044697456,0.0074495757,0.018066406,0.4506836,0.0,0.89208984
17/07/11 05:06:01:398,1543,-0.77368164,0.036376953,0.56225586,-0.034055203,-0.044697456,0.0074495757,0.018066406,0.4506836,0.0,0.89208984
17/07/11 05:06:01:403,1548,-0.7722168,0.03491211,0.56811523,-0.03511943,-0.04576168,0.0063853506,0.018554688,0.45117188,0.0,0.89208984
17/07/11 05:06:01:408,1553,-0.7722168,0.03491211,0.56811523,-0.03511943,-0.04576168,0.0063853506,0.018554688,0.45117188,0.0,0.89208984
17/07/11 05:06:01:413,1558,-0.7607422,0.034179688,0.56103516,-0.03511943,-0.04576168,0.0042569004,0.01953125,0.45117188,4.8828125E-4,0.89208984
17/07/11 05:06:01:419,1564,-0.7607422,0.034179688,0.56103516,-0.03511943,-0.04576168,0.0042569004,0.01953125,0.45117188,4.8828125E-4,0.89208984
17/07/11 05:06:01:425,1570,-0.7722168,0.032226563,0.56689453,-0.03511943,-0.04576168,0.0063853506,0.01953125,0.4501953,4.8828125E-4,0.8925781
17/07/11 05:06:01:430,1575,-0.7739258,0.032714844,0.56152344,-0.03511943,-0.04576168,0.0063853506,0.019042969,0.4506836,0.0,0.89208984
17/07/11 05:06:01:435,1580,-0.7739258,0.032714844,0.56152344,-0.03511943,-0.04576168,0.0063853506,0.019042969,0.4506836,0.0,0.89208984
17/07/11 05:06:01:441,1586,-0.7739258,0.032714844,0.56152344,-0.03511943,-0.04576168,0.0063853506,0.019042969,0.4506836,0.0,0.89208984
17/07/11 05:06:01:445,1590,-0.76708984,0.03173828,0.56396484,-0.036183655,-0.04576168,0.0063853506,0.019042969,0.45117188,0.0,0.89208984
17/07/11 05:06:01:450,1595,-0.76708984,0.03173828,0.56396484,-0.036183655,-0.04576168,0.0063853506,0.019042969,0.45117188,0.0,0.89208984
17/07/11 05:06:01:455,1600,-0.7609863,0.032226563,0.5649414,-0.03511943,-0.04576168,0.0053211255,0.018554688,0.45117188,0.0,0.89208984
17/07/11 05:06:01:461,1606,-0.76831055,0.034179688,0.5629883,-0.03511943,-0.044697456,0.0063853506,0.018554688,0.4506836,0.0,0.8925781
17/07/11 05:06:01:469,1614,-0.76831055,0.034179688,0.5629883,-0.03511943,-0.044697456,0.0063853506,0.018554688,0.4506836,0.0,0.8925781
17/07/11 05:06:01:474,1619,-0.7705078,0.03564453,0.5644531,-0.03511943,-0.044697456,0.0053211255,0.019042969,0.45117188,0.0,0.89208984
17/07/11 05:06:01:479,1624,-0.7705078,0.03564453,0.5644531,-0.03511943,-0.044697456,0.0053211255,0.019042969,0.45117188,0.0,0.89208984
17/07/11 05:06:01:484,1629,-0.7697754,0.033203125,0.560791,-0.034055203,-0.044697456,0.0042569004,0.01953125,0.45117188,4.8828125E-4,0.89208984
17/07/11 05:06:01:489,1634,-0.7697754,0.033203125,0.560791,-0.034055203,-0.044697456,0.0042569004,0.01953125,0.45117188,4.8828125E-4,0.89208984
17/07/11 05:06:01:494,1639,-0.76782227,0.033447266,0.5617676,-0.03511943,-0.04576168,0.0042569004,0.01953125,0.45166016,4.8828125E-4,0.89160156
17/07/11 05:06:01:500,1645,-0.76782227,0.033447266,0.5617676,-0.03511943,-0.04576168,0.0042569004,0.01953125,0.45166016,4.8828125E-4,0.89160156
17/07/11 05:06:01:505,1650,-0.76782227,0.033447266,0.5617676,-0.03511943,-0.04576168,0.0042569004,0.01953125,0.45166016,4.8828125E-4,0.89160156
17/07/11 05:06:01:511,1656,-0.76782227,0.033447266,0.5617676,-0.03511943,-0.04576168,0.0042569004,0.01953125,0.45166016,4.8828125E-4,0.89160156
17/07/11 05:06:01:516,1661,-0.76782227,0.033447266,0.5617676,-0.03511943,-0.04576168,0.0042569004,0.01953125,0.45166016,4.8828125E-4,0.89160156
17/07/11 05:06:01:521,1666,-0.76782227,0.033447266,0.5617676,-0.03511943,-0.04576168,0.0042569004,0.01953125,0.45166016,4.8828125E-4,0.89160156
17/07/11 05:06:01:526,1671,-0.7709961,0.032714844,0.56591797,-0.03511943,-0.04576168,0.0063853506,0.019042969,0.45214844,0.0,0.89160156
17/07/11 05:06:01:532,1677,-0.77368164,0.035888672,0.56225586,-0.034055203,-0.04576168,0.0063853506,0.01953125,0.4506836,4.8828125E-4,0.89208984
17/07/11 05:06:01:538,1683,-0.77368164,0.035888672,0.56225586,-0.034055203,-0.04576168,0.0063853506,0.01953125,0.4506836,4.8828125E-4,0.89208984
17/07/11 05:06:01:543,1688,-0.7687988,0.032226563,0.5625,-0.03511943,-0.044697456,0.0042569004,0.01953125,0.45117188,4.8828125E-4,0.89208984
17/07/11 05:06:01:548,1693,-0.7687988,0.032226563,0.5625,-0.03511943,-0.044697456,0.0042569004,0.01953125,0.45117188,4.8828125E-4,0.89208984
17/07/11 05:06:01:554,1699,-0.76416016,0.029785156,0.5637207,-0.03511943,-0.04576168,0.0053211255,0.019042969,0.45166016,0.0,0.89160156
17/07/11 05:06:01:559,1704,-0.76416016,0.029785156,0.5637207,-0.03511943,-0.04576168,0.0053211255,0.019042969,0.45166016,0.0,0.89160156
17/07/11 05:06:01:564,1709,-0.76416016,0.029785156,0.5637207,-0.03511943,-0.04576168,0.0053211255,0.019042969,0.45166016,0.0,0.89160156
17/07/11 05:06:01:569,1714,-0.76416016,0.029785156,0.5637207,-0.03511943,-0.04576168,0.0053211255,0.019042969,0.45166016,0.0,0.89160156
17/07/11 05:06:01:575,1720,-0.76416016,0.029785156,0.5637207,-0.03511943,-0.04576168,0.0053211255,0.019042969,0.45166016,0.0,0.89160156
17/07/11 05:06:01:579,1724,-0.76416016,0.029785156,0.5637207,-0.03511943,-0.04576168,0.0053211255,0.019042969,0.45166016,0.0,0.89160156
17/07/11 05:06:01:585,1730,-0.767334,0.036132813,0.5649414,-0.03511943,-0.044697456,0.0063853506,0.018554688,0.45117188,0.0,0.89208984
17/07/11 05:06:01:590,1735,-0.76831055,0.03466797,0.55908203,-0.034055203,-0.04576168,0.0053211255,0.020019531,0.45117188,4.8828125E-4,0.89208984
17/07/11 05:06:01:595,1740,-0.7687988,0.033691406,0.5661621,-0.03511943,-0.04576168,0.0063853506,0.020019531,0.45166016,4.8828125E-4,0.89160156
17/07/11 05:06:01:600,1745,-0.76953125,0.03173828,0.564209,-0.036183655,-0.04576168,0.0074495757,0.01953125,0.45117188,4.8828125E-4,0.89208984
17/07/11 05:06:01:605,1750,-0.76953125,0.03173828,0.564209,-0.036183655,-0.04576168,0.0074495757,0.01953125,0.45117188,4.8828125E-4,0.89208984
17/07/11 05:06:01:611,1756,-0.76953125,0.03173828,0.564209,-0.036183655,-0.04576168,0.0074495757,0.01953125,0.45117188,4.8828125E-4,0.89208984
17/07/11 05:06:01:617,1762,-0.76953125,0.03173828,0.564209,-0.036183655,-0.04576168,0.0074495757,0.01953125,0.45117188,4.8828125E-4,0.89208984
17/07/11 05:06:01:622,1767,-0.76953125,0.03173828,0.564209,-0.036183655,-0.04576168,0.0074495757,0.01953125,0.45117188,4.8828125E-4,0.89208984
17/07/11 05:06:01:627,1772,-0.76953125,0.03173828,0.564209,-0.036183655,-0.04576168,0.0074495757,0.01953125,0.45117188,4.8828125E-4,0.89208984
17/07/11 05:06:01:632,1777,-0.76953125,0.03173828,0.564209,-0.036183655,-0.04576168,0.0074495757,0.01953125,0.45117188,4.8828125E-4,0.89208984
17/07/11 05:06:01:639,1784,-0.76220703,0.034423828,0.5656738,-0.032990977,-0.04576168,0.0042569004,0.019042969,0.45166016,0.0,0.89208984
17/07/11 05:06:01:644,1789,-0.7739258,0.032470703,0.56640625,-0.034055203,-0.04576168,0.0053211255,0.01953125,0.45166016,4.8828125E-4,0.89160156
17/07/11 05:06:01:649,1794,-0.76538086,0.030761719,0.5625,-0.034055203,-0.04576168,0.0053211255,0.01953125,0.45166016,4.8828125E-4,0.89160156
17/07/11 05:06:01:654,1799,-0.76538086,0.030761719,0.5625,-0.034055203,-0.04576168,0.0053211255,0.019042969,0.45214844,0.0,0.89160156
17/07/11 05:06:01:659,1804,-0.7675781,0.032958984,0.56347656,-0.03511943,-0.04576168,0.0063853506,0.019042969,0.45214844,0.0,0.89160156
17/07/11 05:06:01:664,1809,-0.7675781,0.032958984,0.56347656,-0.03511943,-0.04576168,0.0063853506,0.018554688,0.45166016,0.0,0.89208984
17/07/11 05:06:01:669,1814,-0.7675781,0.032958984,0.56347656,-0.03511943,-0.04576168,0.0063853506,0.018554688,0.45166016,0.0,0.89208984
17/07/11 05:06:01:675,1820,-0.7692871,0.032714844,0.5654297,-0.03511943,-0.04576168,0.0063853506,0.019042969,0.45117188,0.0,0.89208984
17/07/11 05:06:01:680,1825,-0.77319336,0.032470703,0.5629883,-0.034055203,-0.04576168,0.0063853506,0.018554688,0.4506836,0.0,0.89208984
17/07/11 05:06:01:685,1830,-0.77319336,0.032470703,0.5629883,-0.034055203,-0.04576168,0.0063853506,0.018554688,0.4506836,0.0,0.89208984
17/07/11 05:06:01:690,1835,-0.7631836,0.033203125,0.5632324,-0.03511943,-0.04576168,0.0053211255,0.018554688,0.45166016,0.0,0.89208984
17/07/11 05:06:01:695,1840,-0.7631836,0.033203125,0.5632324,-0.03511943,-0.04576168,0.0053211255,0.018554688,0.45166016,0.0,0.89208984
17/07/11 05:06:01:700,1845,-0.7631836,0.033203125,0.5632324,-0.03511943,-0.04576168,0.0053211255,0.018554688,0.45166016,0.0,0.89208984
17/07/11 05:06:01:705,1850,-0.7631836,0.033203125,0.5632324,-0.03511943,-0.04576168,0.0053211255,0.018554688,0.45166016,0.0,0.89208984
17/07/11 05:06:01:710,1855,-0.7631836,0.033203125,0.5632324,-0.03511943,-0.04576168,0.0053211255,0.018554688,0.45166016,0.0,0.89208984
17/07/11 05:06:01:715,1860,-0.7631836,0.033203125,0.5632324,-0.03511943,-0.04576168,0.0053211255,0.018554688,0.45166016,0.0,0.89208984
17/07/11 05:06:01:721,1866,-0.7631836,0.033203125,0.5632324,-0.03511943,-0.04576168,0.0053211255,0.018554688,0.45166016,0.0,0.89208984
17/07/11 05:06:01:726,1871,-0.7722168,0.03125,0.56469727,-0.036183655,-0.04576168,0.0063853506,0.019042969,0.4506836,0.0,0.89208984
17/07/11 05:06:01:732,1877,-0.7741699,0.033447266,0.56640625,-0.036183655,-0.04576168,0.0074495757,0.019042969,0.45117188,0.0,0.89208984
17/07/11 05:06:01:737,1882,-0.7685547,0.036376953,0.5637207,-0.03511943,-0.044697456,0.0042569004,0.019042969,0.45166016,0.0,0.89160156
17/07/11 05:06:01:742,1887,-0.767334,0.034179688,0.5612793,-0.034055203,-0.04576168,0.0063853506,0.020019531,0.45166016,4.8828125E-4,0.89160156
17/07/11 05:06:01:747,1892,-0.767334,0.034179688,0.5612793,-0.034055203,-0.04576168,0.0063853506,0.020019531,0.45166016,4.8828125E-4,0.89160156
17/07/11 05:06:01:752,1897,-0.767334,0.034179688,0.5612793,-0.034055203,-0.04576168,0.0063853506,0.020019531,0.45166016,4.8828125E-4,0.89160156
17/07/11 05:06:01:758,1903,-0.767334,0.034179688,0.5612793,-0.034055203,-0.04576168,0.0063853506,0.020019531,0.45166016,4.8828125E-4,0.89160156
17/07/11 05:06:01:763,1908,-0.767334,0.034179688,0.5612793,-0.034055203,-0.04576168,0.0063853506,0.020019531,0.45166016,4.8828125E-4,0.89160156
17/07/11 05:06:01:769,1914,-0.767334,0.034179688,0.5612793,-0.034055203,-0.04576168,0.0063853506,0.020019531,0.45166016,4.8828125E-4,0.89160156
17/07/11 05:06:01:775,1920,-0.7661133,0.032470703,0.5612793,-0.03511943,-0.04576168,0.0063853506,0.01953125,0.45214844,4.8828125E-4,0.89160156
17/07/11 05:06:01:782,1927,-0.76660156,0.033447266,0.5600586,-0.03511943,-0.044697456,0.0053211255,0.019042969,0.45166016,0.0,0.89160156
17/07/11 05:06:01:789,1934,-0.76660156,0.033447266,0.5600586,-0.03511943,-0.044697456,0.0053211255,0.019042969,0.45166016,0.0,0.89160156
17/07/11 05:06:01:794,1939,-0.7692871,0.032714844,0.5637207,-0.03511943,-0.044697456,0.0053211255,0.019042969,0.45214844,0.0,0.89160156
17/07/11 05:06:01:799,1944,-0.7692871,0.032714844,0.5637207,-0.03511943,-0.044697456,0.0053211255,0.019042969,0.45214844,0.0,0.89160156
17/07/11 05:06:01:804,1949,-0.77368164,0.03564453,0.5632324,-0.03511943,-0.04576168,0.0063853506,0.019042969,0.45166016,0.0,0.89160156
17/07/11 05:06:01:809,1954,-0.77368164,0.03564453,0.5632324,-0.03511943,-0.04576168,0.0063853506,0.019042969,0.45166016,0.0,0.89160156
17/07/11 05:06:01:814,1959,-0.77001953,0.03540039,0.5732422,-0.03511943,-0.04576168,0.0063853506,0.01953125,0.45214844,0.0,0.89160156
17/07/11 05:06:01:819,1964,-0.77001953,0.03540039,0.5732422,-0.03511943,-0.04576168,0.0063853506,0.01953125,0.45214844,0.0,0.89160156
17/07/11 05:06:01:824,1969,-0.7475586,0.0073242188,0.5551758,-0.037247878,-0.04363323,0.0042569004,0.01953125,0.45166016,4.8828125E-4,0.89160156
17/07/11 05:06:01:829,1974,-0.7475586,0.0073242188,0.5551758,-0.037247878,-0.04363323,0.0042569004,0.01953125,0.45166016,4.8828125E-4,0.89160156
17/07/11 05:06:01:834,1979,-0.72558594,0.033447266,0.55078125,-0.032990977,-0.044697456,0.0021284502,0.017578125,0.45117188,0.0,0.89208984
17/07/11 05:06:01:840,1985,-0.72558594,0.033447266,0.55078125,-0.032990977,-0.044697456,0.0021284502,0.017578125,0.45117188,0.0,0.89208984
17/07/11 05:06:01:845,1990,-0.79418945,0.05834961,0.5776367,-0.032990977,-0.04576168,0.012770701,0.018066406,0.44970703,0.0,0.8925781
17/07/11 05:06:01:851,1996,-0.8039551,0.0871582,0.5773926,-0.030862529,-0.046825904,0.008513801,0.021484375,0.4506836,0.0014648438,0.89208984
17/07/11 05:06:01:856,2001,-0.8039551,0.0871582,0.5773926,-0.030862529,-0.046825904,0.008513801,0.021484375,0.4506836,0.0014648438,0.89208984
17/07/11 05:06:01:862,2007,-0.8039551,0.0871582,0.5773926,-0.030862529,-0.046825904,0.008513801,0.0234375,0.45117188,0.001953125,0.89208984
17/07/11 05:06:01:867,2012,-0.8039551,0.0871582,0.5773926,-0.030862529,-0.046825904,0.008513801,0.0234375,0.45117188,0.001953125,0.89208984
17/07/11 05:06:01:872,2017,-0.7248535,0.034179688,0.5734863,-0.03937633,-0.044697456,-0.0021284502,0.023925781,0.45117188,0.0024414063,0.89160156
17/07/11 05:06:01:877,2022,-0.7248535,0.034179688,0.5734863,-0.03937633,-0.044697456,-0.0021284502,0.023925781,0.45117188,0.0024414063,0.89160156
17/07/11 05:06:01:882,2027,-0.74560547,0.014404297,0.5419922,-0.03937633,-0.042569004,0.008513801,0.0234375,0.44873047,0.0024414063,0.8930664
17/07/11 05:06:01:887,2032,-0.74560547,0.014404297,0.5419922,-0.03937633,-0.042569004,0.008513801,0.0234375,0.44873047,0.0024414063,0.8930664
17/07/11 05:06:01:893,2038,-0.8613281,0.018310547,0.5698242,-0.03511943,-0.046825904,0.020220276,0.021484375,0.44921875,0.0014648438,0.8930664
17/07/11 05:06:01:898,2043,-0.8613281,0.018310547,0.5698242,-0.03511943,-0.046825904,0.020220276,0.021484375,0.44921875,0.0014648438,0.8930664
17/07/11 05:06:01:903,2048,-0.64404297,0.0014648438,0.55737305,-0.036183655,-0.051082805,-0.019156052,0.01953125,0.45458984,0.0,0.8901367
17/07/11 05:06:01:908,2053,-0.64404297,0.0014648438,0.55737305,-0.036183655,-0.051082805,-0.019156052,0.01953125,0.45458984,0.0,0.8901367
17/07/11 05:06:01:913,2058,-0.64404297,0.0014648438,0.55737305,-0.036183655,-0.051082805,-0.019156052,0.01953125,0.45458984,0.0,0.8901367
17/07/11 05:06:01:918,2063,-0.64404297,0.0014648438,0.55737305,-0.036183655,-0.051082805,-0.019156052,0.01953125,0.45458984,0.0,0.8901367
17/07/11 05:06:01:923,2068,-0.8149414,0.052734375,0.5708008,-0.030862529,-0.041504778,0.027669853,0.015136719,0.44384766,-0.0014648438,0.8955078
17/07/11 05:06:01:929,2074,-0.8227539,0.06738281,0.57470703,-0.03192675,-0.046825904,0.0063853506,0.018554688,0.44921875,0.0,0.8930664
17/07/11 05:06:01:934,2079,-0.717041,0.03930664,0.5683594,-0.03511943,-0.04789013,-0.0074495757,0.019042969,0.44921875,0.0,0.8930664
17/07/11 05:06:01:939,2084,-0.717041,0.03930664,0.5683594,-0.03511943,-0.04789013,-0.0074495757,0.019042969,0.44921875,0.0,0.8930664
17/07/11 05:06:01:944,2089,-0.717041,0.03930664,0.5683594,-0.03511943,-0.04789013,-0.0074495757,0.019042969,0.44921875,0.0,0.8930664
17/07/11 05:06:01:949,2094,-0.717041,0.03930664,0.5683594,-0.03511943,-0.04789013,-0.0074495757,0.019042969,0.44921875,0.0,0.8930664
17/07/11 05:06:01:954,2099,-0.717041,0.03930664,0.5683594,-0.03511943,-0.04789013,-0.0074495757,0.019042969,0.44921875,0.0,0.8930664
17/07/11 05:06:01:959,2104,-0.717041,0.03930664,0.5683594,-0.03511943,-0.04789013,-0.0074495757,0.019042969,0.44921875,0.0,0.8930664
17/07/11 05:06:01:964,2109,-0.79467773,0.026123047,0.5612793,-0.036183655,-0.042569004,0.013834926,0.020507813,0.44384766,9.765625E-4,0.8955078
17/07/11 05:06:01:969,2114,-0.79467773,0.026123047,0.5612793,-0.036183655,-0.042569004,0.013834926,0.020507813,0.44384766,9.765625E-4,0.8955078
17/07/11 05:06:01:974,2119,-0.7475586,0.033447266,0.57666016,-0.03511943,-0.04576168,0.0063853506,0.019042969,0.44628906,0.0,0.89453125
17/07/11 05:06:01:979,2124,-0.7475586,0.033447266,0.57666016,-0.03511943,-0.04576168,0.0063853506,0.019042969,0.44628906,0.0,0.89453125
17/07/11 05:06:01:984,2129,-0.79589844,0.060302734,0.5571289,-0.032990977,-0.041504778,0.011706476,0.019042969,0.44580078,0.0,0.89453125
17/07/11 05:06:01:989,2134,-0.79589844,0.060302734,0.5571289,-0.032990977,-0.041504778,0.011706476,0.019042969,0.44580078,0.0,0.89453125
17/07/11 05:06:01:994,2139,-0.7885742,0.039794922,0.5617676,-0.036183655,-0.044697456,0.0031926753,0.020996094,0.4482422,9.765625E-4,0.8935547
17/07/11 05:06:01:999,2144,-0.7885742,0.039794922,0.5617676,-0.036183655,-0.044697456,0.0031926753,0.020996094,0.4482422,9.765625E-4,0.8935547
17/07/11 05:06:02:004,2149,-0.7885742,0.039794922,0.5617676,-0.036183655,-0.044697456,0.0031926753,0.020996094,0.4482422,9.765625E-4,0.8935547
17/07/11 05:06:02:009,2154,-0.7885742,0.039794922,0.5617676,-0.036183655,-0.044697456,0.0031926753,0.020996094,0.4482422,9.765625E-4,0.8935547
17/07/11 05:06:02:014,2159,-0.7885742,0.039794922,0.5617676,-0.036183655,-0.044697456,0.0031926753,0.020996094,0.4482422,9.765625E-4,0.8935547
17/07/11 05:06:02:020,2165,-0.7885742,0.039794922,0.5617676,-0.036183655,-0.044697456,0.0031926753,0.020996094,0.4482422,9.765625E-4,0.8935547
17/07/11 05:06:02:026,2171,-0.73291016,0.020751953,0.5620117,-0.037247878,-0.04576168,-0.0,0.020996094,0.44970703,9.765625E-4,0.8925781
17/07/11 05:06:02:031,2176,-0.7832031,0.028564453,0.576416,-0.036183655,-0.046825904,0.0074495757,0.018554688,0.44873047,0.0,0.8930664
17/07/11 05:06:02:037,2182,-0.74438477,0.040283203,0.5576172,-0.032990977,-0.046825904,0.0010642251,0.018066406,0.44921875,0.0,0.8930664
17/07/11 05:06:02:042,2187,-0.7807617,0.037109375,0.5654297,-0.036183655,-0.044697456,0.008513801,0.020019531,0.4482422,4.8828125E-4,0.8935547
17/07/11 05:06:02:047,2192,-0.7807617,0.037109375,0.5654297,-0.036183655,-0.044697456,0.008513801,0.020019531,0.4482422,4.8828125E-4,0.8935547
17/07/11 05:06:02:052,2197,-0.7849121,0.032714844,0.5595703,-0.03511943,-0.04363323,0.0074495757,0.020019531,0.44970703,4.8828125E-4,0.8925781
17/07/11 05:06:02:057,2202,-0.7849121,0.032714844,0.5595703,-0.03511943,-0.04363323,0.0074495757,0.020019531,0.44970703,4.8828125E-4,0.8925781
17/07/11 05:06:02:063,2208,-0.7541504,0.030761719,0.56591797,-0.036183655,-0.044697456,0.0031926753,0.020019531,0.4501953,4.8828125E-4,0.8925781
17/07/11 05:06:02:067,2212,-0.7541504,0.030761719,0.56591797,-0.036183655,-0.044697456,0.0031926753,0.020019531,0.4501953,4.8828125E-4,0.8925781
17/07/11 05:06:02:072,2217,-0.76123047,0.02734375,0.56689453,-0.036183655,-0.044697456,0.0063853506,0.01953125,0.44921875,0.0,0.8930664
17/07/11 05:06:02:077,2222,-0.76123047,0.02734375,0.56689453,-0.036183655,-0.044697456,0.0063853506,0.01953125,0.44921875,0.0,0.8930664
17/07/11 05:06:02:083,2228,-0.7766113,0.03857422,0.5632324,-0.034055203,-0.04363323,0.0063853506,0.018554688,0.44873047,0.0,0.8930664
17/07/11 05:06:02:087,2232,-0.7766113,0.03857422,0.5632324,-0.034055203,-0.04363323,0.0063853506,0.018554688,0.44873047,0.0,0.8930664
17/07/11 05:06:02:093,2238,-0.76220703,0.034423828,0.5629883,-0.034055203,-0.04789013,0.0031926753,0.019042969,0.44921875,0.0,0.8930664
17/07/11 05:06:02:098,2243,-0.78515625,0.03881836,0.5620117,-0.03511943,-0.046825904,0.008513801,0.019042969,0.44921875,0.0,0.8930664
17/07/11 05:06:02:104,2249,-0.78515625,0.03881836,0.5620117,-0.03511943,-0.046825904,0.008513801,0.01953125,0.44970703,4.8828125E-4,0.8925781
17/07/11 05:06:02:110,2255,-0.78515625,0.03881836,0.5620117,-0.03511943,-0.046825904,0.008513801,0.01953125,0.44970703,4.8828125E-4,0.8925781
17/07/11 05:06:02:116,2261,-0.7644043,0.032958984,0.5649414,-0.036183655,-0.044697456,0.0031926753,0.020019531,0.45117188,4.8828125E-4,0.89208984
17/07/11 05:06:02:122,2267,-0.7644043,0.032958984,0.5649414,-0.036183655,-0.044697456,0.0031926753,0.020019531,0.45117188,4.8828125E-4,0.89208984
17/07/11 05:06:02:128,2273,-0.7644043,0.032958984,0.5649414,-0.036183655,-0.044697456,0.0031926753,0.020019531,0.45117188,4.8828125E-4,0.89208984
17/07/11 05:06:02:133,2278,-0.7644043,0.032958984,0.5649414,-0.036183655,-0.044697456,0.0031926753,0.020019531,0.45117188,4.8828125E-4,0.89208984
17/07/11 05:06:02:139,2284,-0.7644043,0.032958984,0.5649414,-0.036183655,-0.044697456,0.0031926753,0.020019531,0.45117188,4.8828125E-4,0.89208984
17/07/11 05:06:02:144,2289,-0.7644043,0.032958984,0.5649414,-0.036183655,-0.044697456,0.0031926753,0.020019531,0.45117188,4.8828125E-4,0.89208984
17/07/11 05:06:02:149,2294,-0.76342773,0.025146484,0.57128906,-0.036183655,-0.046825904,0.0053211255,0.019042969,0.44970703,0.0,0.8925781
17/07/11 05:06:02:154,2299,-0.7800293,0.032958984,0.56030273,-0.034055203,-0.044697456,0.0074495757,0.018066406,0.4501953,0.0,0.8925781
17/07/11 05:06:02:160,2305,-0.7675781,0.041992188,0.56518555,-0.034055203,-0.04363323,0.0042569004,0.018554688,0.4506836,0.0,0.89208984
17/07/11 05:06:02:165,2310,-0.7675781,0.041992188,0.56518555,-0.034055203,-0.04363323,0.0042569004,0.018554688,0.4506836,0.0,0.89208984
17/07/11 05:06:02:170,2315,-0.7675781,0.041992188,0.56518555,-0.034055203,-0.04363323,0.0042569004,0.018554688,0.4506836,0.0,0.89208984
17/07/11 05:06:02:175,2320,-0.7675781,0.041992188,0.56518555,-0.034055203,-0.04363323,0.0042569004,0.018554688,0.4506836,0.0,0.89208984
17/07/11 05:06:02:180,2325,-0.7675781,0.041992188,0.56518555,-0.034055203,-0.04363323,0.0042569004,0.018554688,0.4506836,0.0,0.89208984
17/07/11 05:06:02:185,2330,-0.7675781,0.041992188,0.56518555,-0.034055203,-0.04363323,0.0042569004,0.018554688,0.4506836,0.0,0.89208984
17/07/11 05:06:02:190,2335,-0.7675781,0.041992188,0.56518555,-0.034055203,-0.04363323,0.0042569004,0.018554688,0.4506836,0.0,0.89208984
17/07/11 05:06:02:197,2342,-0.7607422,0.025634766,0.57543945,-0.037247878,-0.044697456,0.0042569004,0.019042969,0.4506836,0.0,0.89208984
17/07/11 05:06:02:202,2347,-0.7648926,0.02758789,0.5551758,-0.03511943,-0.04576168,0.0074495757,0.019042969,0.4506836,0.0,0.8925781
17/07/11 05:06:02:207,2352,-0.7648926,0.02758789,0.5551758,-0.03511943,-0.04576168,0.0074495757,0.019042969,0.4506836,0.0,0.8925781
17/07/11 05:06:02:212,2357,-0.77783203,0.040527344,0.56469727,-0.034055203,-0.04363323,0.008513801,0.018554688,0.45117188,0.0,0.89208984
17/07/11 05:06:02:217,2362,-0.77783203,0.040527344,0.56469727,-0.034055203,-0.04363323,0.008513801,0.018554688,0.45117188,0.0,0.89208984
17/07/11 05:06:02:223,2368,-0.7685547,0.032958984,0.5683594,-0.034055203,-0.046825904,0.0053211255,0.020019531,0.45214844,4.8828125E-4,0.89160156
17/07/11 05:06:02:229,2374,-0.7685547,0.032958984,0.5683594,-0.034055203,-0.046825904,0.0053211255,0.020019531,0.45214844,4.8828125E-4,0.89160156
17/07/11 05:06:02:234,2379,-0.7675781,0.034179688,0.56274414,-0.034055203,-0.044697456,0.0063853506,0.01953125,0.45117188,4.8828125E-4,0.89208984
17/07/11 05:06:02:243,2388,-0.7729492,0.037353516,0.5654297,-0.03511943,-0.04363323,0.0063853506,0.01953125,0.45166016,0.0,0.89160156
17/07/11 05:06:02:248,2393,-0.7729492,0.037353516,0.5654297,-0.03511943,-0.04363323,0.0063853506,0.01953125,0.45166016,0.0,0.89160156
17/07/11 05:06:02:253,2398,-0.7705078,0.030273438,0.5563965,-0.036183655,-0.044697456,0.0053211255,0.020019531,0.45214844,4.8828125E-4,0.89160156
17/07/11 05:06:02:258,2403,-0.7705078,0.030273438,0.5563965,-0.036183655,-0.044697456,0.0053211255,0.020019531,0.45214844,4.8828125E-4,0.89160156
17/07/11 05:06:02:263,2408,-0.77001953,0.03881836,0.5673828,-0.034055203,-0.044697456,0.0063853506,0.020019531,0.45263672,4.8828125E-4,0.8911133
17/07/11 05:06:02:271,2416,-0.7717285,0.028320313,0.56689453,-0.03511943,-0.044697456,0.0053211255,0.020019531,0.45214844,4.8828125E-4,0.89160156
17/07/11 05:06:02:276,2421,-0.7717285,0.028320313,0.56689453,-0.03511943,-0.044697456,0.0053211255,0.020019531,0.45214844,4.8828125E-4,0.89160156
17/07/11 05:06:02:281,2426,-0.7644043,0.028320313,0.56762695,-0.034055203,-0.04576168,0.0063853506,0.01953125,0.45166016,4.8828125E-4,0.89160156
17/07/11 05:06:02:286,2431,-0.7644043,0.028320313,0.56762695,-0.034055203,-0.04576168,0.0063853506,0.01953125,0.45166016,4.8828125E-4,0.89160156
17/07/11 05:06:02:292,2437,-0.7753906,0.03955078,0.5654297,-0.032990977,-0.04576168,0.0063853506,0.019042969,0.45117188,0.0,0.89208984
17/07/11 05:06:02:297,2442,-0.7753906,0.03955078,0.5654297,-0.032990977,-0.04576168,0.0063853506,0.019042969,0.45117188,0.0,0.89208984
17/07/11 05:06:02:302,2447,-0.7709961,0.034423828,0.5595703,-0.03511943,-0.04576168,0.0053211255,0.01953125,0.45166016,4.8828125E-4,0.89160156
17/07/11 05:06:02:307,2452,-0.7709961,0.034423828,0.5595703,-0.03511943,-0.04576168,0.0053211255,0.01953125,0.45166016,4.8828125E-4,0.89160156
17/07/11 05:06:02:312,2457,-0.7661133,0.033935547,0.56469727,-0.03511943,-0.044697456,0.0053211255,0.01953125,0.45214844,4.8828125E-4,0.89160156
17/07/11 05:06:02:317,2462,-0.7661133,0.033935547,0.56469727,-0.03511943,-0.044697456,0.0053211255,0.01953125,0.45214844,4.8828125E-4,0.89160156
17/07/11 05:06:02:322,2467,-0.7717285,0.040039063,0.5600586,-0.034055203,-0.04576168,0.0063853506,0.01953125,0.45166016,4.8828125E-4,0.89160156
17/07/11 05:06:02:327,2472,-0.7717285,0.040039063,0.5600586,-0.034055203,-0.04576168,0.0063853506,0.01953125,0.45166016,4.8828125E-4,0.89160156
17/07/11 05:06:02:332,2477,-0.7717285,0.040039063,0.5600586,-0.034055203,-0.04576168,0.0063853506,0.01953125,0.45166016,4.8828125E-4,0.89160156
17/07/11 05:06:02:337,2482,-0.7717285,0.040039063,0.5600586,-0.034055203,-0.04576168,0.0063853506,0.01953125,0.45166016,4.8828125E-4,0.89160156
17/07/11 05:06:02:342,2487,-0.7717285,0.040039063,0.5600586,-0.034055203,-0.04576168,0.0063853506,0.01953125,0.45166016,4.8828125E-4,0.89160156
17/07/11 05:06:02:348,2493,-0.7717285,0.040039063,0.5600586,-0.034055203,-0.04576168,0.0063853506,0.01953125,0.45166016,4.8828125E-4,0.89160156
17/07/11 05:06:02:357,2502,-0.77441406,0.033935547,0.5698242,-0.037247878,-0.04576168,0.0053211255,0.020019531,0.45214844,4.8828125E-4,0.89160156
17/07/11 05:06:02:363,2508,-0.7702637,0.037109375,0.5708008,-0.036183655,-0.04576168,0.0063853506,0.021484375,0.45117188,0.0014648438,0.89208984
17/07/11 05:06:02:368,2513,-0.7702637,0.037109375,0.5708008,-0.036183655,-0.04576168,0.0063853506,0.021484375,0.45117188,0.0014648438,0.89208984
17/07/11 05:06:02:373,2518,-0.77001953,0.053710938,0.5500488,-0.03511943,-0.044697456,0.0042569004,0.021484375,0.4506836,9.765625E-4,0.89208984
17/07/11 05:06:02:378,2523,-0.77001953,0.053710938,0.5500488,-0.03511943,-0.044697456,0.0042569004,0.021484375,0.4506836,9.765625E-4,0.89208984
17/07/11 05:06:02:383,2528,-0.77001953,0.053710938,0.5500488,-0.03511943,-0.044697456,0.0042569004,0.021484375,0.4506836,9.765625E-4,0.89208984
17/07/11 05:06:02:388,2533,-0.77001953,0.053710938,0.5500488,-0.03511943,-0.044697456,0.0042569004,0.021484375,0.4506836,9.765625E-4,0.89208984
17/07/11 05:06:02:393,2538,-0.77001953,0.053710938,0.5500488,-0.03511943,-0.044697456,0.0042569004,0.021484375,0.4506836,9.765625E-4,0.89208984
17/07/11 05:06:02:398,2543,-0.77001953,0.053710938,0.5500488,-0.03511943,-0.044697456,0.0042569004,0.021484375,0.4506836,9.765625E-4,0.89208984
17/07/11 05:06:02:403,2548,-0.77001953,0.053710938,0.5500488,-0.03511943,-0.044697456,0.0042569004,0.021484375,0.4506836,9.765625E-4,0.89208984
17/07/11 05:06:02:408,2553,-0.75390625,0.014160156,0.5817871,-0.041504778,-0.046825904,0.0021284502,0.021484375,0.45263672,0.0014648438,0.8911133
17/07/11 05:06:02:413,2558,-0.7453613,0.017822266,0.55688477,-0.036183655,-0.046825904,0.0031926753,0.020507813,0.45117188,9.765625E-4,0.89208984
17/07/11 05:06:02:418,2563,-0.7453613,0.017822266,0.55688477,-0.036183655,-0.046825904,0.0031926753,0.020507813,0.45117188,9.765625E-4,0.89208984
17/07/11 05:06:02:423,2568,-0.7453613,0.017822266,0.55688477,-0.036183655,-0.046825904,0.0031926753,0.020507813,0.45117188,9.765625E-4,0.89208984
17/07/11 05:06:02:428,2573,-0.7453613,0.017822266,0.55688477,-0.036183655,-0.046825904,0.0031926753,0.020507813,0.45117188,9.765625E-4,0.89208984
17/07/11 05:06:02:433,2578,-0.7453613,0.017822266,0.55688477,-0.036183655,-0.046825904,0.0031926753,0.020507813,0.45117188,9.765625E-4,0.89208984
17/07/11 05:06:02:438,2583,-0.7453613,0.017822266,0.55688477,-0.036183655,-0.046825904,0.0031926753,0.020507813,0.45117188,9.765625E-4,0.89208984
17/07/11 05:06:02:443,2588,-0.7453613,-0.017578125,0.6188965,-0.038312104,-0.04363323,0.0031926753,0.020507813,0.45117188,9.765625E-4,0.89208984
17/07/11 05:06:02:449,2594,-0.8535156,0.041015625,0.5637207,-0.022348728,-0.03511943,0.028734077,0.019042969,0.4506836,0.0,0.89208984
17/07/11 05:06:02:454,2599,-0.8449707,0.057373047,0.5644531,-0.034055203,-0.048954353,0.025541402,0.03125,0.44873047,0.0063476563,0.8930664
17/07/11 05:06:02:459,2604,-0.83691406,0.14648438,0.51953125,-0.025541402,-0.03511943,0.013834926,0.03125,0.44873047,0.0063476563,0.8930664
17/07/11 05:06:02:464,2609,-0.83691406,0.14648438,0.51953125,-0.025541402,-0.03511943,0.013834926,0.030761719,0.45458984,0.005859375,0.8901367
17/07/11 05:06:02:469,2614,-0.6640625,-0.04638672,0.64160156,-0.05640393,-0.048954353,-0.015963376,0.030761719,0.45458984,0.005859375,0.8901367
17/07/11 05:06:02:474,2619,-0.6640625,-0.04638672,0.64160156,-0.05640393,-0.048954353,-0.015963376,0.03564453,0.4584961,0.008300781,0.8876953
17/07/11 05:06:02:479,2624,-0.80444336,-0.026123047,0.5571289,-0.032990977,-0.03937633,0.024477176,0.03564453,0.4584961,0.008300781,0.8876953
17/07/11 05:06:02:484,2629,-0.80444336,-0.026123047,0.5571289,-0.032990977,-0.03937633,0.024477176,0.028320313,0.44921875,0.0048828125,0.8925781
17/07/11 05:06:02:489,2634,-0.79052734,0.037109375,0.5439453,-0.028734077,-0.04789013,-0.0021284502,0.021972656,0.45214844,0.0014648438,0.89160156
17/07/11 05:06:02:494,2639,-0.79052734,0.037109375,0.5439453,-0.028734077,-0.04789013,-0.0021284502,0.021972656,0.45214844,0.0014648438,0.89160156
17/07/11 05:06:02:499,2644,-0.79052734,0.037109375,0.5439453,-0.028734077,-0.04789013,-0.0021284502,0.021972656,0.45214844,0.0014648438,0.89160156
17/07/11 05:06:02:504,2649,-0.7290039,0.0034179688,0.5476074,-0.037247878,-0.059596606,-0.0053211255,0.021484375,0.45458984,0.0014648438,0.8901367
17/07/11 05:06:02:509,2654,-0.8334961,0.12719727,0.5307617,-0.023412952,-0.037247878,0.024477176,0.018554688,0.453125,0.0,0.8911133
17/07/11 05:06:02:515,2660,-0.8334961,0.12719727,0.5307617,-0.023412952,-0.037247878,0.024477176,0.018554688,0.453125,0.0,0.8911133
17/07/11 05:06:02:520,2665,-0.8334961,0.12719727,0.5307617,-0.023412952,-0.037247878,0.024477176,0.018554688,0.453125,0.0,0.8911133
17/07/11 05:06:02:526,2671,-0.8334961,0.12719727,0.5307617,-0.023412952,-0.037247878,0.024477176,0.018554688,0.453125,0.0,0.8911133
17/07/11 05:06:02:531,2676,-0.8334961,0.12719727,0.5307617,-0.023412952,-0.037247878,0.024477176,0.018554688,0.453125,0.0,0.8911133
17/07/11 05:06:02:536,2681,-0.8334961,0.12719727,0.5307617,-0.023412952,-0.037247878,0.024477176,0.018554688,0.453125,0.0,0.8911133
17/07/11 05:06:02:541,2686,-0.8334961,0.12719727,0.5307617,-0.023412952,-0.037247878,0.024477176,0.018554688,0.453125,0.0,0.8911133
17/07/11 05:06:02:546,2691,-0.75097656,-0.02709961,0.5715332,-0.040440552,-0.04363323,0.008513801,0.024414063,0.45117188,0.0029296875,0.89208984
17/07/11 05:06:02:551,2696,-0.78125,-0.0053710938,0.5473633,-0.030862529,-0.037247878,0.0053211255,0.020996094,0.4506836,0.0014648438,0.89208984
17/07/11 05:06:02:556,2701,-0.78149414,-0.0053710938,0.5473633,-0.03937633,-0.05427548,0.0021284502,0.01953125,0.453125,4.8828125E-4,0.8911133
17/07/11 05:06:02:561,2706,-0.7631836,0.040039063,0.5488281,-0.029798303,-0.04363323,0.009578026,0.018066406,0.45361328,0.0,0.890625
17/07/11 05:06:02:566,2711,-0.7631836,0.040039063,0.5488281,-0.029798303,-0.04363323,0.009578026,0.018066406,0.45361328,0.0,0.890625
17/07/11 05:06:02:571,2716,-0.7631836,0.040039063,0.5488281,-0.029798303,-0.04363323,0.009578026,0.018066406,0.45361328,0.0,0.890625
17/07/11 05:06:02:576,2721,-0.7631836,0.040039063,0.5488281,-0.029798303,-0.04363323,0.009578026,0.018066406,0.45361328,0.0,0.890625
17/07/11 05:06:02:581,2726,-0.7631836,0.040039063,0.5488281,-0.029798303,-0.04363323,0.009578026,0.018066406,0.45361328,0.0,0.890625
17/07/11 05:06:02:586,2731,-0.7631836,0.040039063,0.5488281,-0.029798303,-0.04363323,0.009578026,0.018066406,0.45361328,0.0,0.890625
17/07/11 05:06:02:591,2736,-0.7631836,0.040039063,0.5488281,-0.029798303,-0.04363323,0.009578026,0.018066406,0.45361328,0.0,0.890625
17/07/11 05:06:02:596,2741,-0.8273926,0.099853516,0.5859375,-0.027669853,-0.03511943,0.022348728,0.01953125,0.45458984,4.8828125E-4,0.890625
17/07/11 05:06:02:601,2746,-0.8276367,0.0625,0.51000977,-0.028734077,-0.03937633,0.012770701,0.018554688,0.4506836,0.0,0.89208984
17/07/11 05:06:02:606,2751,-0.8276367,0.0625,0.51000977,-0.028734077,-0.03937633,0.012770701,0.016113281,0.45263672,-9.765625E-4,0.8911133
17/07/11 05:06:02:612,2757,-0.7338867,-0.035888672,0.60791016,-0.044697456,-0.053211257,-0.0031926753,0.017578125,0.4555664,0.0,0.8901367
17/07/11 05:06:02:618,2763,-0.7338867,-0.035888672,0.60791016,-0.044697456,-0.053211257,-0.0031926753,0.017578125,0.4555664,0.0,0.8901367
17/07/11 05:06:02:623,2768,-0.7722168,0.07397461,0.58325195,-0.025541402,-0.03937633,0.012770701,0.013183594,0.45117188,-0.0024414063,0.89208984
17/07/11 05:06:02:629,2774,-0.7722168,0.07397461,0.58325195,-0.025541402,-0.03937633,0.012770701,0.013183594,0.45117188,-0.0024414063,0.89208984
17/07/11 05:06:02:633,2778,-0.7937012,0.052734375,0.56396484,-0.036183655,-0.048954353,0.0053211255,0.020019531,0.44921875,4.8828125E-4,0.8930664
17/07/11 05:06:02:638,2783,-0.7937012,0.052734375,0.56396484,-0.036183655,-0.048954353,0.0053211255,0.020019531,0.44921875,4.8828125E-4,0.8930664
17/07/11 05:06:02:643,2788,-0.7451172,0.028564453,0.5546875,-0.037247878,-0.05001858,-0.0053211255,0.020996094,0.4506836,9.765625E-4,0.89208984
17/07/11 05:06:02:648,2793,-0.7451172,0.028564453,0.5546875,-0.037247878,-0.05001858,-0.0053211255,0.020996094,0.4506836,9.765625E-4,0.89208984
17/07/11 05:06:02:654,2799,-0.7648926,0.05029297,0.5187988,-0.03192675,-0.040440552,0.009578026,0.018066406,0.44873047,0.0,0.8930664
17/07/11 05:06:02:659,2804,-0.7648926,0.05029297,0.5187988,-0.03192675,-0.040440552,0.009578026,0.018066406,0.44873047,0.0,0.8930664
17/07/11 05:06:02:664,2809,-0.7751465,-0.0014648438,0.5749512,-0.041504778,-0.04789013,0.0074495757,0.019042969,0.4501953,0.0,0.8925781
17/07/11 05:06:02:669,2814,-0.7751465,-0.0014648438,0.5749512,-0.041504778,-0.04789013,0.0074495757,0.019042969,0.4501953,0.0,0.8925781
17/07/11 05:06:02:674,2819,-0.7692871,0.018310547,0.5961914,-0.032990977,-0.042569004,0.008513801,0.015136719,0.4501953,-0.0014648438,0.8925781
17/07/11 05:06:02:679,2824,-0.7692871,0.018310547,0.5961914,-0.032990977,-0.042569004,0.008513801,0.015136719,0.4501953,-0.0014648438,0.8925781
17/07/11 05:06:02:685,2830,-0.7324219,0.044677734,0.5541992,-0.03192675,-0.04576168,-0.0,0.0146484375,0.44873047,-0.0014648438,0.8935547
17/07/11 05:06:02:690,2835,-0.7324219,0.044677734,0.5541992,-0.03192675,-0.04576168,-0.0,0.0146484375,0.44873047,-0.0014648438,0.8935547
17/07/11 05:06:02:695,2840,-0.7832031,0.021240234,0.5686035,-0.03511943,-0.048954353,0.0074495757,0.018066406,0.44726563,0.0,0.89404297
17/07/11 05:06:02:700,2845,-0.8059082,0.076171875,0.53125,-0.03511943,-0.048954353,0.011706476,0.018066406,0.44726563,0.0,0.89404297
17/07/11 05:06:02:705,2850,-0.8059082,0.076171875,0.53125,-0.028734077,-0.03937633,0.011706476,0.016113281,0.44970703,-9.765625E-4,0.8925781
17/07/11 05:06:02:710,2855,-0.7373047,0.01586914,0.5734863,-0.040440552,-0.046825904,-0.0010642251,0.016113281,0.44970703,-9.765625E-4,0.89160156
17/07/11 05:06:02:716,2861,-0.7373047,0.01586914,0.5734863,-0.040440552,-0.046825904,-0.0010642251,0.018554688,0.45214844,0.0,0.89160156
17/07/11 05:06:02:721,2866,-0.7583008,0.013183594,0.58032227,-0.036183655,-0.042569004,0.010642251,0.015625,0.44677734,-9.765625E-4,0.89404297
17/07/11 05:06:02:726,2871,-0.7583008,0.013183594,0.58032227,-0.036183655,-0.042569004,0.010642251,0.015625,0.44677734,-9.765625E-4,0.89404297
17/07/11 05:06:02:732,2877,-0.80737305,0.059814453,0.56762695,-0.029798303,-0.041504778,0.009578026,0.014160156,0.44580078,-0.001953125,0.89453125
17/07/11 05:06:02:737,2882,-0.80737305,0.059814453,0.56762695,-0.029798303,-0.041504778,0.009578026,0.014160156,0.44580078,-0.001953125,0.89453125
17/07/11 05:06:02:742,2887,-0.73999023,0.010253906,0.5703125,-0.03937633,-0.05214703,-0.0063853506,0.016601563,0.4482422,-4.8828125E-4,0.8935547
17/07/11 05:06:02:747,2892,-0.73999023,0.010253906,0.5703125,-0.03937633,-0.05214703,-0.0063853506,0.016601563,0.4482422,-4.8828125E-4,0.8935547
17/07/11 05:06:02:752,2897,-0.73999023,0.010253906,0.5703125,-0.03937633,-0.05214703,-0.0063853506,0.016601563,0.4482422,-4.8828125E-4,0.8935547
17/07/11 05:06:02:757,2902,-0.73999023,0.010253906,0.5703125,-0.03937633,-0.05214703,-0.0063853506,0.016601563,0.4482422,-4.8828125E-4,0.8935547
17/07/11 05:06:02:762,2907,-0.73999023,0.010253906,0.5703125,-0.03937633,-0.05214703,-0.0063853506,0.016601563,0.4482422,-4.8828125E-4,0.8935547
17/07/11 05:06:02:767,2912,-0.73999023,0.010253906,0.5703125,-0.03937633,-0.05214703,-0.0063853506,0.016601563,0.4482422,-4.8828125E-4,0.8935547
17/07/11 05:06:02:772,2917,-0.73999023,0.010253906,0.5703125,-0.03937633,-0.05214703,-0.0063853506,0.016601563,0.4482422,-4.8828125E-4,0.8935547
17/07/11 05:06:02:777,2922,-0.78759766,0.05908203,0.532959,-0.029798303,-0.042569004,0.011706476,0.014160156,0.44580078,-0.001953125,0.89453125
17/07/11 05:06:02:782,2927,-0.7375488,0.009521484,0.57373047,-0.03937633,-0.046825904,0.0042569004,0.017578125,0.44921875,0.0,0.8930664
17/07/11 05:06:02:788,2933,-0.7375488,0.009521484,0.57373047,-0.03937633,-0.046825904,0.0042569004,0.017578125,0.44921875,0.0,0.8930664
17/07/11 05:06:02:793,2938,-0.7375488,0.009521484,0.57373047,-0.03937633,-0.046825904,0.0042569004,0.017578125,0.44921875,0.0,0.8930664
17/07/11 05:06:02:798,2943,-0.7375488,0.009521484,0.57373047,-0.03937633,-0.046825904,0.0042569004,0.017578125,0.44921875,0.0,0.8930664
17/07/11 05:06:02:803,2948,-0.7375488,0.009521484,0.57373047,-0.03937633,-0.046825904,0.0042569004,0.017578125,0.44921875,0.0,0.8930664
17/07/11 05:06:02:808,2953,-0.7375488,0.009521484,0.57373047,-0.03937633,-0.046825904,0.0042569004,0.017578125,0.44921875,0.0,0.8930664
17/07/11 05:06:02:814,2959,-0.77978516,0.044189453,0.56811523,-0.032990977,-0.041504778,0.010642251,0.015625,0.44677734,-9.765625E-4,0.89404297
17/07/11 05:06:02:819,2964,-0.75878906,0.0146484375,0.5720215,-0.037247878,-0.04789013,0.0074495757,0.017578125,0.4506836,0.0,0.89208984
17/07/11 05:06:02:825,2970,-0.75878906,0.0146484375,0.5720215,-0.037247878,-0.04789013,0.0074495757,0.01953125,0.4506836,4.8828125E-4,0.89208984
17/07/11 05:06:02:830,2975,-0.75878906,0.0146484375,0.5720215,-0.037247878,-0.04789013,0.0074495757,0.01953125,0.4506836,4.8828125E-4,0.89208984
17/07/11 05:06:02:835,2980,-0.75878906,0.0146484375,0.5720215,-0.037247878,-0.04789013,0.0074495757,0.01953125,0.4506836,4.8828125E-4,0.89208984
17/07/11 05:06:02:841,2986,-0.75878906,0.0146484375,0.5720215,-0.037247878,-0.04789013,0.0074495757,0.01953125,0.4506836,4.8828125E-4,0.89208984
17/07/11 05:06:02:846,2991,-0.75878906,0.0146484375,0.5720215,-0.037247878,-0.04789013,0.0074495757,0.01953125,0.4506836,4.8828125E-4,0.89208984
17/07/11 05:06:02:851,2996,-0.75878906,0.0146484375,0.5720215,-0.037247878,-0.04789013,0.0074495757,0.01953125,0.4506836,4.8828125E-4,0.89208984
17/07/11 05:06:02:856,3001,-0.7614746,0.017089844,0.5671387,-0.037247878,-0.04789013,0.0010642251,0.018066406,0.44970703,0.0,0.8925781
17/07/11 05:06:02:861,3006,-0.7624512,0.053222656,0.5632324,-0.034055203,-0.044697456,0.0042569004,0.017578125,0.45166016,0.0,0.89208984
17/07/11 05:06:02:866,3011,-0.7624512,0.053222656,0.5632324,-0.034055203,-0.044697456,0.0042569004,0.017578125,0.45166016,0.0,0.89208984
17/07/11 05:06:02:871,3016,-0.76342773,0.020019531,0.5708008,-0.037247878,-0.04789013,0.0063853506,0.01953125,0.45117188,4.8828125E-4,0.89208984
17/07/11 05:06:02:877,3022,-0.76342773,0.020019531,0.5708008,-0.037247878,-0.04789013,0.0063853506,0.01953125,0.45117188,4.8828125E-4,0.89208984
17/07/11 05:06:02:882,3027,-0.7727051,0.045898438,0.5720215,-0.03192675,-0.042569004,0.0074495757,0.018066406,0.4501953,0.0,0.8925781
17/07/11 05:06:02:888,3033,-0.7727051,0.045898438,0.5720215,-0.03192675,-0.042569004,0.0074495757,0.018066406,0.4501953,0.0,0.8925781
17/07/11 05:06:02:893,3038,-0.7734375,0.029541016,0.57543945,-0.036183655,-0.04576168,0.0042569004,0.01953125,0.4501953,4.8828125E-4,0.8925781
17/07/11 05:06:02:898,3043,-0.7734375,0.029541016,0.57543945,-0.036183655,-0.04576168,0.0042569004,0.01953125,0.4501953,4.8828125E-4,0.8925781
17/07/11 05:06:02:903,3048,-0.7492676,0.0063476563,0.5463867,-0.037247878,-0.046825904,0.0042569004,0.019042969,0.44970703,0.0,0.8925781
17/07/11 05:06:02:908,3053,-0.7492676,0.0063476563,0.5463867,-0.037247878,-0.046825904,0.0042569004,0.019042969,0.44970703,0.0,0.8925781
17/07/11 05:06:02:914,3059,-0.7878418,0.05859375,0.5588379,-0.03192675,-0.042569004,0.011706476,0.017578125,0.4501953,0.0,0.8925781
17/07/11 05:06:02:919,3064,-0.78100586,0.02734375,0.5793457,-0.037247878,-0.04789013,0.0074495757,0.017578125,0.4501953,0.0,0.8925781
17/07/11 05:06:02:924,3069,-0.78100586,0.02734375,0.5793457,-0.037247878,-0.04789013,0.0074495757,0.020507813,0.45214844,4.8828125E-4,0.89160156
17/07/11 05:06:02:929,3074,-0.7229004,0.040039063,0.560791,-0.032990977,-0.04363323,-0.0010642251,0.020507813,0.45214844,4.8828125E-4,0.89160156
17/07/11 05:06:02:934,3079,-0.7229004,0.040039063,0.560791,-0.032990977,-0.04363323,-0.0010642251,0.019042969,0.45117188,0.0,0.89208984
17/07/11 05:06:02:940,3085,-0.7937012,0.04321289,0.5761719,-0.034055203,-0.04363323,0.011706476,0.020019531,0.4482422,4.8828125E-4,0.8935547
17/07/11 05:06:02:945,3090,-0.7937012,0.04321289,0.5761719,-0.034055203,-0.04363323,0.011706476,0.020019531,0.4482422,4.8828125E-4,0.8935547
17/07/11 05:06:02:950,3095,-0.7817383,0.026611328,0.54174805,-0.034055203,-0.04576168,0.0042569004,0.021484375,0.4506836,0.0014648438,0.89208984
17/07/11 05:06:02:955,3100,-0.7817383,0.026611328,0.54174805,-0.034055203,-0.04576168,0.0042569004,0.021484375,0.4506836,0.0014648438,0.89208984
17/07/11 05:06:02:960,3105,-0.7817383,0.026611328,0.54174805,-0.034055203,-0.04576168,0.0042569004,0.021484375,0.4506836,0.0014648438,0.89208984
17/07/11 05:06:02:965,3110,-0.7817383,0.026611328,0.54174805,-0.034055203,-0.04576168,0.0042569004,0.021484375,0.4506836,0.0014648438,0.89208984
17/07/11 05:06:02:972,3117,-0.7817383,0.026611328,0.54174805,-0.034055203,-0.04576168,0.0042569004,0.021484375,0.4506836,0.0014648438,0.89208984
17/07/11 05:06:02:977,3122,-0.7817383,0.026611328,0.54174805,-0.034055203,-0.04576168,0.0042569004,0.021484375,0.4506836,0.0014648438,0.89208984
17/07/11 05:06:02:982,3127,-0.7817383,0.036621094,0.56591797,-0.034055203,-0.04576168,0.0042569004,0.021484375,0.4506836,0.0014648438,0.89208984
17/07/11 05:06:02:987,3132,-0.78027344,0.045654297,0.57055664,-0.034055203,-0.044697456,0.008513801,0.019042969,0.4501953,0.0,0.8925781
17/07/11 05:06:02:993,3138,-0.76123047,0.046875,0.56811523,-0.034055203,-0.04576168,0.0021284502,0.020507813,0.4506836,9.765625E-4,0.89208984
17/07/11 05:06:02:998,3143,-0.76123047,0.046875,0.56811523,-0.034055203,-0.04576168,0.0021284502,0.020507813,0.4506836,9.765625E-4,0.89208984
17/07/11 05:06:03:005,3150,-0.76123047,0.046875,0.56811523,-0.034055203,-0.04576168,0.0021284502,0.020507813,0.4506836,9.765625E-4,0.89208984
17/07/11 05:06:03:010,3155,-0.76123047,0.046875,0.56811523,-0.034055203,-0.04576168,0.0021284502,0.020507813,0.4506836,9.765625E-4,0.89208984
17/07/11 05:06:03:015,3160,-0.76123047,0.046875,0.56811523,-0.034055203,-0.04576168,0.0021284502,0.020507813,0.4506836,9.765625E-4,0.89208984
17/07/11 05:06:03:021,3166,-0.76464844,0.01977539,0.55200195,-0.037247878,-0.046825904,0.0063853506,0.021484375,0.4501953,0.0014648438,0.8925781
17/07/11 05:06:03:026,3171,-0.76464844,0.01977539,0.55200195,-0.037247878,-0.046825904,0.0063853506,0.021484375,0.4501953,0.0014648438,0.8925781
17/07/11 05:06:03:031,3176,-0.76464844,0.01977539,0.55200195,-0.037247878,-0.046825904,0.0063853506,0.021484375,0.4501953,0.0014648438,0.8925781
17/07/11 05:06:03:036,3181,-0.7770996,0.026367188,0.5649414,-0.037247878,-0.046825904,0.0074495757,0.020507813,0.45263672,9.765625E-4,0.8911133
17/07/11 05:06:03:041,3186,-0.76660156,0.048095703,0.5654297,-0.032990977,-0.044697456,0.0063853506,0.019042969,0.45117188,0.0,0.89208984
17/07/11 05:06:03:046,3191,-0.76660156,0.048095703,0.5654297,-0.032990977,-0.044697456,0.0063853506,0.019042969,0.45117188,0.0,0.89208984
17/07/11 05:06:03:051,3196,-0.7832031,0.025634766,0.5612793,-0.037247878,-0.046825904,0.0063853506,0.020996094,0.45117188,9.765625E-4,0.89208984
17/07/11 05:06:03:056,3201,-0.7832031,0.025634766,0.5612793,-0.037247878,-0.046825904,0.0063853506,0.020996094,0.45117188,9.765625E-4,0.89208984
17/07/11 05:06:03:062,3207,-0.7590332,0.044677734,0.56152344,-0.03511943,-0.04363323,0.0031926753,0.020019531,0.45214844,4.8828125E-4,0.89160156
17/07/11 05:06:03:068,3213,-0.7590332,0.044677734,0.56152344,-0.03511943,-0.04363323,0.0031926753,0.020019531,0.45214844,4.8828125E-4,0.89160156
17/07/11 05:06:03:073,3218,-0.79785156,-0.014404297,0.5358887,-0.059596606,-0.038312104,0.018091828,0.021484375,0.45117188,0.0014648438,0.89208984
17/07/11 05:06:03:078,3223,-0.79785156,-0.014404297,0.5358887,-0.059596606,-0.038312104,0.018091828,0.021484375,0.45117188,0.0014648438,0.89208984
17/07/11 05:06:03:083,3228,-0.736084,-0.05834961,0.56469727,-0.05640393,-0.034055203,0.0031926753,0.018554688,0.45361328,0.0,0.8911133
17/07/11 05:06:03:088,3233,-0.736084,-0.05834961,0.56469727,-0.05640393,-0.034055203,0.0031926753,0.018554688,0.45361328,0.0,0.8911133
17/07/11 05:06:03:093,3238,-0.76782227,0.119628906,0.6032715,0.0,-0.06066083,0.008513801,0.015136719,0.45263672,-9.765625E-4,0.89160156
17/07/11 05:06:03:098,3243,-0.76782227,0.119628906,0.6032715,0.0,-0.06066083,0.008513801,0.015136719,0.45263672,-9.765625E-4,0.89160156
17/07/11 05:06:03:103,3248,-0.7910156,0.034179688,0.5480957,-0.041504778,-0.051082805,0.0074495757,0.021972656,0.4501953,0.0014648438,0.8925781
17/07/11 05:06:03:108,3253,-0.7910156,0.034179688,0.5480957,-0.041504778,-0.051082805,0.0074495757,0.021972656,0.4501953,0.0014648438,0.8925781
17/07/11 05:06:03:113,3258,-0.76123047,0.05053711,0.55688477,-0.053211257,-0.026605628,-0.0021284502,0.020996094,0.4555664,9.765625E-4,0.88964844
17/07/11 05:06:03:118,3263,-0.76123047,0.05053711,0.55688477,-0.053211257,-0.026605628,-0.0021284502,0.020996094,0.4555664,9.765625E-4,0.88964844
17/07/11 05:06:03:123,3268,-0.81640625,0.01977539,0.5354004,-0.027669853,-0.05640393,0.014899151,0.022460938,0.45458984,0.001953125,0.8901367
17/07/11 05:06:03:128,3273,-0.81640625,0.01977539,0.5354004,-0.027669853,-0.05640393,0.014899151,0.022460938,0.45458984,0.001953125,0.8901367
17/07/11 05:06:03:133,3278,-0.7319336,0.05908203,0.59277344,-0.025541402,-0.05427548,-0.0031926753,0.020996094,0.45751953,9.765625E-4,0.8886719
17/07/11 05:06:03:138,3283,-0.7319336,0.05908203,0.59277344,-0.025541402,-0.05427548,-0.0031926753,0.020996094,0.45751953,9.765625E-4,0.8886719
17/07/11 05:06:03:143,3288,-0.77001953,0.06298828,0.5756836,-0.06278928,-0.0063853506,0.015963376,0.022949219,0.45214844,0.001953125,0.89160156
17/07/11 05:06:03:148,3293,-0.77001953,0.06298828,0.5756836,-0.06278928,-0.0063853506,0.015963376,0.022949219,0.45214844,0.001953125,0.89160156
17/07/11 05:06:03:153,3298,-0.81469727,-4.8828125E-4,0.5695801,-0.038312104,-0.009578026,0.018091828,0.024414063,0.45117188,0.0034179688,0.89160156
17/07/11 05:06:03:159,3304,-0.81469727,-4.8828125E-4,0.5695801,-0.038312104,-0.009578026,0.018091828,0.024414063,0.45117188,0.0034179688,0.89160156
17/07/11 05:06:03:164,3309,-0.71875,0.09765625,0.59375,0.008513801,-0.04363323,-0.017027602,0.021484375,0.45263672,0.001953125,0.8911133
17/07/11 05:06:03:169,3314,-0.71875,0.09765625,0.59375,0.008513801,-0.04363323,-0.017027602,0.021484375,0.45263672,0.001953125,0.8911133
17/07/11 05:06:03:174,3319,-0.71875,0.09765625,0.59375,0.008513801,-0.04363323,-0.017027602,0.021484375,0.45263672,0.001953125,0.8911133
17/07/11 05:06:03:180,3325,-0.71875,0.09765625,0.59375,0.008513801,-0.04363323,-0.017027602,0.021484375,0.45263672,0.001953125,0.8911133
17/07/11 05:06:03:185,3330,-0.71875,0.09765625,0.59375,0.008513801,-0.04363323,-0.017027602,0.021484375,0.45263672,0.001953125,0.8911133
17/07/11 05:06:03:190,3335,-0.71875,0.09765625,0.59375,0.008513801,-0.04363323,-0.017027602,0.021484375,0.45263672,0.001953125,0.8911133
17/07/11 05:06:03:195,3340,-0.80615234,-0.017822266,0.53686523,-0.04363323,-0.04789013,0.010642251,0.026367188,0.4482422,0.00390625,0.8930664
17/07/11 05:06:03:200,3345,-0.80322266,0.05859375,0.5644531,-0.015963376,-0.06066083,0.015963376,0.018066406,0.45117188,0.0,0.89208984
17/07/11 05:06:03:206,3351,-0.75634766,0.080566406,0.56933594,-0.029798303,-0.07236731,0.0010642251,0.022949219,0.45507813,0.0024414063,0.8901367
17/07/11 05:06:03:211,3356,-0.73950195,0.045898438,0.5859375,-0.074495755,-0.053211257,0.0053211255,0.025878906,0.453125,0.00390625,0.890625
17/07/11 05:06:03:216,3361,-0.73950195,0.045898438,0.5859375,-0.074495755,-0.053211257,0.0053211255,0.025878906,0.453125,0.00390625,0.890625
17/07/11 05:06:03:221,3366,-0.79907227,0.0107421875,0.5427246,-0.04576168,-0.07662421,0.020220276,0.025878906,0.45214844,0.00390625,0.89160156
17/07/11 05:06:03:226,3371,-0.79907227,0.0107421875,0.5427246,-0.04576168,-0.07662421,0.020220276,0.025878906,0.45214844,0.00390625,0.89160156
17/07/11 05:06:03:231,3376,-0.79907227,0.0107421875,0.5427246,-0.04576168,-0.07662421,0.020220276,0.025878906,0.45214844,0.00390625,0.89160156
17/07/11 05:06:03:236,3381,-0.79907227,0.0107421875,0.5427246,-0.04576168,-0.07662421,0.020220276,0.025878906,0.45214844,0.00390625,0.89160156
17/07/11 05:06:03:241,3386,-0.79907227,0.0107421875,0.5427246,-0.04576168,-0.07662421,0.020220276,0.025878906,0.45214844,0.00390625,0.89160156
17/07/11 05:06:03:246,3391,-0.79907227,0.0107421875,0.5427246,-0.04576168,-0.07662421,0.020220276,0.025878906,0.45214844,0.00390625,0.89160156
17/07/11 05:06:03:251,3396,-0.79907227,0.0107421875,0.5427246,-0.04576168,-0.07662421,0.020220276,0.025878906,0.45214844,0.00390625,0.89160156
17/07/11 05:06:03:256,3401,-0.76586914,0.0061035156,0.5708008,-0.015963376,-0.074495755,0.0042569004,0.0234375,0.45410156,0.0024414063,0.890625
17/07/11 05:06:03:261,3406,-0.7492676,0.080078125,0.576416,-0.040440552,-0.059596606,0.0042569004,0.020996094,0.45507813,9.765625E-4,0.8901367
17/07/11 05:06:03:266,3411,-0.7492676,0.080078125,0.576416,-0.040440552,-0.059596606,0.0042569004,0.021972656,0.4560547,0.0014648438,0.88964844
17/07/11 05:06:03:271,3416,-0.77197266,0.036376953,0.576416,-0.051082805,-0.05853238,0.015963376,0.024414063,0.45410156,0.0029296875,0.8901367
17/07/11 05:06:03:276,3421,-0.77197266,0.036376953,0.576416,-0.051082805,-0.05853238,0.015963376,0.024414063,0.45410156,0.0029296875,0.8901367
17/07/11 05:06:03:281,3426,-0.75561523,-0.03149414,0.5686035,-0.05427548,-0.05427548,0.0053211255,0.024414063,0.45410156,0.0029296875,0.8901367
17/07/11 05:06:03:287,3432,-0.78344727,0.0031738281,0.546875,-0.036183655,-0.038312104,0.009578026,0.0234375,0.453125,0.0024414063,0.8911133
17/07/11 05:06:03:292,3437,-0.78344727,0.0031738281,0.55737305,-0.021284502,-0.011706476,0.0074495757,0.018554688,0.453125,0.0,0.8911133
17/07/11 05:06:03:308,3453,-0.78881836,0.1003418,0.55737305,-0.021284502,-0.011706476,0.0074495757,0.018554688,0.453125,0.0,0.8911133
17/07/11 05:06:03:313,3458,-0.7519531,-0.012207031,0.5830078,-0.036183655,-0.05427548,-0.0021284502,0.021972656,0.45410156,0.001953125,0.890625
17/07/11 05:06:03:319,3464,-0.7519531,-0.012207031,0.5830078,-0.036183655,-0.05427548,-0.0021284502,0.021972656,0.45410156,0.001953125,0.890625
17/07/11 05:06:03:324,3469,-0.7463379,0.017822266,0.5722656,-0.022348728,-0.0638535,-0.0,0.016601563,0.4506836,-4.8828125E-4,0.8925781
17/07/11 05:06:03:330,3475,-0.7866211,0.02758789,0.5637207,-0.020220276,-0.046825904,0.0021284502,0.015625,0.44921875,-9.765625E-4,0.8930664
17/07/11 05:06:03:335,3480,-0.7866211,0.02758789,0.5637207,-0.020220276,-0.046825904,0.0021284502,0.015625,0.44921875,-9.765625E-4,0.8930664
17/07/11 05:06:03:340,3485,-0.7609863,0.020263672,0.5600586,-0.011706476,-0.05427548,0.0010642251,0.015625,0.44921875,-9.765625E-4,0.8930664
17/07/11 05:06:03:345,3490,-0.7609863,0.020263672,0.5600586,-0.011706476,-0.05427548,0.0010642251,0.016113281,0.4506836,-9.765625E-4,0.89208984
17/07/11 05:06:03:350,3495,-0.78100586,0.10449219,0.546875,0.0,-0.04363323,0.0074495757,0.014160156,0.4506836,-0.001953125,0.89208984
17/07/11 05:06:03:355,3500,-0.78100586,0.10449219,0.546875,0.0,-0.04363323,0.0074495757,0.014160156,0.4506836,-0.001953125,0.89208984
17/07/11 05:06:03:360,3505,-0.7512207,0.048583984,0.5739746,-0.03511943,-0.05214703,0.0010642251,0.017578125,0.45166016,-4.8828125E-4,0.89160156
17/07/11 05:06:03:365,3510,-0.7512207,0.048583984,0.5739746,-0.03511943,-0.05214703,0.0010642251,0.017578125,0.45166016,-4.8828125E-4,0.89160156
17/07/11 05:06:03:370,3515,-0.7512207,0.048583984,0.5739746,-0.03511943,-0.05214703,0.0010642251,0.017578125,0.45166016,-4.8828125E-4,0.89160156
17/07/11 05:06:03:375,3520,-0.7512207,0.048583984,0.5739746,-0.03511943,-0.05214703,0.0010642251,0.017578125,0.45166016,-4.8828125E-4,0.89160156
17/07/11 05:06:03:380,3525,-0.7512207,0.048583984,0.5739746,-0.03511943,-0.05214703,0.0010642251,0.017578125,0.45166016,-4.8828125E-4,0.89160156
17/07/11 05:06:03:385,3530,-0.7512207,0.048583984,0.5739746,-0.03511943,-0.05214703,0.0010642251,0.017578125,0.45166016,-4.8828125E-4,0.89160156
17/07/11 05:06:03:390,3535,-0.7512207,0.048583984,0.5739746,-0.03511943,-0.05214703,0.0010642251,0.017578125,0.45166016,-4.8828125E-4,0.89160156
17/07/11 05:06:03:395,3540,-0.7722168,0.02709961,0.55908203,-0.04789013,-0.065981954,0.013834926,0.020019531,0.44921875,4.8828125E-4,0.8930664
17/07/11 05:06:03:400,3545,-0.7890625,0.0024414063,0.5415039,-0.008513801,-0.015963376,0.0031926753,0.018066406,0.45117188,0.0,0.89208984
17/07/11 05:06:03:405,3550,-0.7890625,0.0024414063,0.5415039,-0.008513801,-0.015963376,0.0031926753,0.018066406,0.45117188,0.0,0.89208984
17/07/11 05:06:03:411,3556,-0.7668457,0.06958008,0.564209,0.0074495757,-0.0,-0.008513801,0.015625,0.45263672,-0.0014648438,0.89160156
17/07/11 05:06:03:416,3561,-0.7668457,0.06958008,0.564209,0.0074495757,-0.0,-0.008513801,0.015625,0.45263672,-0.0014648438,0.89160156
17/07/11 05:06:03:421,3566,-0.7668457,0.06958008,0.564209,0.0074495757,-0.0,-0.008513801,0.015625,0.45263672,-0.0014648438,0.89160156
17/07/11 05:06:03:426,3571,-0.7668457,0.06958008,0.564209,0.0074495757,-0.0,-0.008513801,0.015625,0.45263672,-0.0014648438,0.89160156
17/07/11 05:06:03:431,3576,-0.7668457,0.06958008,0.564209,0.0074495757,-0.0,-0.008513801,0.015625,0.45263672,-0.0014648438,0.89160156
17/07/11 05:06:03:436,3581,-0.7668457,0.06958008,0.564209,0.0074495757,-0.0,-0.008513801,0.015625,0.45263672,-0.0014648438,0.89160156
17/07/11 05:06:03:441,3586,-0.7668457,0.06958008,0.564209,0.0074495757,-0.0,-0.008513801,0.015625,0.45263672,-0.0014648438,0.89160156
17/07/11 05:06:03:447,3592,-0.7668457,0.06958008,0.564209,0.0074495757,-0.0,-0.008513801,0.015625,0.45263672,-0.0014648438,0.89160156
17/07/11 05:06:03:452,3597,-0.7668457,0.06958008,0.564209,0.0074495757,-0.0,-0.008513801,0.015625,0.45263672,-0.0014648438,0.89160156
17/07/11 05:06:03:457,3602,-0.7668457,0.06958008,0.564209,0.0074495757,-0.0,-0.008513801,0.015625,0.45263672,-0.0014648438,0.89160156
17/07/11 05:06:03:462,3607,-0.7668457,0.06958008,0.564209,0.0074495757,-0.0,-0.008513801,0.015625,0.45263672,-0.0014648438,0.89160156
17/07/11 05:06:03:467,3612,-0.7668457,0.06958008,0.564209,0.0074495757,-0.0,-0.008513801,0.015625,0.45263672,-0.0014648438,0.89160156
17/07/11 05:06:03:472,3617,-0.7668457,0.06958008,0.564209,0.0074495757,-0.0,-0.008513801,0.015625,0.45263672,-0.0014648438,0.89160156
17/07/11 05:06:03:477,3622,-0.7717285,0.06713867,0.5595703,-0.03192675,-0.020220276,0.0021284502,0.01953125,0.45214844,0.0,0.89160156
17/07/11 05:06:03:482,3627,-0.7717285,0.06713867,0.5595703,-0.03192675,-0.020220276,0.0021284502,0.01953125,0.45214844,0.0,0.89160156
17/07/11 05:06:03:487,3632,-0.7717285,0.06713867,0.5595703,-0.03192675,-0.020220276,0.0021284502,0.01953125,0.45214844,0.0,0.89160156
17/07/11 05:06:03:492,3637,-0.7717285,0.06713867,0.5595703,-0.03192675,-0.020220276,0.0021284502,0.01953125,0.45214844,0.0,0.89160156
17/07/11 05:06:03:497,3642,-0.7717285,0.06713867,0.5595703,-0.03192675,-0.020220276,0.0021284502,0.01953125,0.45214844,0.0,0.89160156
17/07/11 05:06:03:502,3647,-0.7717285,0.06713867,0.5595703,-0.03192675,-0.020220276,0.0021284502,0.01953125,0.45214844,0.0,0.89160156
17/07/11 05:06:03:508,3653,-0.7717285,0.06713867,0.5595703,-0.03192675,-0.020220276,0.0021284502,0.01953125,0.45214844,0.0,0.89160156
17/07/11 05:06:03:513,3658,-0.7717285,0.06713867,0.5595703,-0.03192675,-0.020220276,0.0021284502,0.01953125,0.45214844,0.0,0.89160156
17/07/11 05:06:03:518,3663,-0.7717285,0.06713867,0.5595703,-0.03192675,-0.020220276,0.0021284502,0.01953125,0.45214844,0.0,0.89160156
17/07/11 05:06:03:523,3668,-0.7717285,0.06713867,0.5595703,-0.03192675,-0.020220276,0.0021284502,0.01953125,0.45214844,0.0,0.89160156
17/07/11 05:06:03:528,3673,-0.7717285,0.06713867,0.5595703,-0.03192675,-0.020220276,0.0021284502,0.01953125,0.45214844,0.0,0.89160156
17/07/11 05:06:03:533,3678,-0.7717285,0.06713867,0.5595703,-0.03192675,-0.020220276,0.0021284502,0.01953125,0.45214844,0.0,0.89160156
17/07/11 05:06:03:538,3683,-0.7717285,0.06713867,0.5595703,-0.03192675,-0.020220276,0.0021284502,0.01953125,0.45214844,0.0,0.89160156
17/07/11 05:06:03:543,3688,-0.76416016,0.038085938,0.57006836,-0.05640393,-0.03192675,0.012770701,0.020507813,0.45214844,4.8828125E-4,0.89160156
17/07/11 05:06:03:548,3693,-0.7844238,-0.004638672,0.5588379,-0.109615184,0.022348728,0.0063853506,0.021484375,0.4477539,0.0024414063,0.8935547
17/07/11 05:06:03:553,3698,-0.7844238,-0.004638672,0.5588379,-0.109615184,0.022348728,0.0063853506,0.021484375,0.4477539,0.0024414063,0.8935547
17/07/11 05:06:03:558,3703,-0.7844238,-0.004638672,0.5588379,-0.109615184,0.022348728,0.0063853506,0.021484375,0.4477539,0.0024414063,0.8935547
17/07/11 05:06:03:564,3709,-0.7844238,-0.004638672,0.5588379,-0.109615184,0.022348728,0.0063853506,0.021484375,0.4477539,0.0024414063,0.8935547
17/07/11 05:06:03:569,3714,-0.7844238,-0.004638672,0.5588379,-0.109615184,0.022348728,0.0063853506,0.021484375,0.4477539,0.0024414063,0.8935547
17/07/11 05:06:03:574,3719,-0.7844238,-0.004638672,0.5588379,-0.109615184,0.022348728,0.0063853506,0.021484375,0.4477539,0.0024414063,0.8935547
17/07/11 05:06:03:580,3725,-0.7844238,-0.004638672,0.5588379,-0.109615184,0.022348728,0.0063853506,0.021484375,0.4477539,0.0024414063,0.8935547
17/07/11 05:06:03:585,3730,-0.7844238,-0.004638672,0.5588379,-0.109615184,0.022348728,0.0063853506,0.021484375,0.4477539,0.0024414063,0.8935547
17/07/11 05:06:03:591,3736,-0.7844238,-0.004638672,0.5588379,-0.109615184,0.022348728,0.0063853506,0.021484375,0.4477539,0.0024414063,0.8935547
17/07/11 05:06:03:597,3742,-0.85302734,0.026367188,0.5358887,-0.048954353,-0.05001858,-0.23519374,0.020019531,0.4560547,0.0024414063,0.88964844
17/07/11 05:06:03:602,3747,-0.85302734,0.026367188,0.5358887,-0.048954353,-0.05001858,-0.23519374,0.020019531,0.4560547,0.0024414063,0.88964844
17/07/11 05:06:03:607,3752,-0.85302734,0.026367188,0.5358887,-0.048954353,-0.05001858,-0.23519374,0.020019531,0.4560547,0.0024414063,0.88964844
17/07/11 05:06:03:612,3757,-0.85302734,0.026367188,0.5358887,-0.048954353,-0.05001858,-0.23519374,0.020019531,0.4560547,0.0024414063,0.88964844
17/07/11 05:06:03:617,3762,-0.85302734,0.026367188,0.5358887,-0.048954353,-0.05001858,-0.23519374,0.020019531,0.4560547,0.0024414063,0.88964844
17/07/11 05:06:03:622,3767,-0.8227539,0.03540039,0.5756836,-0.04789013,-0.011706476,-0.75666404,0.018066406,0.45214844,0.0014648438,0.89160156
17/07/11 05:06:03:627,3772,-0.8227539,0.03540039,0.5756836,-0.04789013,-0.011706476,-0.75666404,0.018066406,0.45214844,0.0014648438,0.89160156
17/07/11 05:06:03:633,3778,-0.8178711,0.02709961,0.5891113,-0.044697456,0.0021284502,-0.86415076,0.018066406,0.44921875,0.001953125,0.8930664
17/07/11 05:06:03:638,3783,-0.8178711,0.02709961,0.5891113,-0.044697456,0.0021284502,-0.86415076,0.018066406,0.44921875,0.001953125,0.8930664
17/07/11 05:06:03:643,3788,-0.8178711,0.02709961,0.5891113,-0.044697456,0.0021284502,-0.86415076,0.018066406,0.44921875,0.001953125,0.8930664
17/07/11 05:06:03:649,3794,-0.8178711,0.02709961,0.5891113,-0.044697456,0.0021284502,-0.86415076,0.018066406,0.44921875,0.001953125,0.8930664
17/07/11 05:06:03:655,3800,-0.8178711,0.02709961,0.5891113,-0.044697456,0.0021284502,-0.86415076,0.018066406,0.44921875,0.001953125,0.8930664
17/07/11 05:06:03:660,3805,-0.8178711,0.02709961,0.5891113,-0.044697456,0.0021284502,-0.86415076,0.018066406,0.44921875,0.001953125,0.8930664
17/07/11 05:06:03:666,3811,-0.7878418,0.036376953,0.58935547,-0.041504778,-0.0021284502,-0.9727017,0.018066406,0.44580078,0.001953125,0.89453125
17/07/11 05:06:03:671,3816,-0.7470703,0.04711914,0.6269531,-0.046825904,-0.014899151,-1.1323355,0.01953125,0.4375,0.0029296875,0.8984375
17/07/11 05:06:03:676,3821,-0.7351074,0.04711914,0.6269531,-0.046825904,-0.018091828,-1.1887394,0.01953125,0.43115234,0.0029296875,0.90185547
17/07/11 05:06:03:681,3826,-0.7351074,0.04711914,0.6269531,-0.046825904,-0.018091828,-1.1887394,0.01953125,0.43115234,0.0029296875,0.90185547
17/07/11 05:06:03:687,3832,-0.71728516,0.040527344,0.6296387,-0.05427548,-0.020220276,-1.2366296,0.020019531,0.4243164,0.0029296875,0.90478516
17/07/11 05:06:03:692,3837,-0.6777344,0.046875,0.63500977,-0.06278928,-0.013834926,-1.2632352,0.020019531,0.41796875,0.0029296875,0.90771484
17/07/11 05:06:03:697,3842,-0.6777344,0.046875,0.63500977,-0.06278928,-0.013834926,-1.2632352,0.020019531,0.41796875,0.0029296875,0.90771484
17/07/11 05:06:03:702,3847,-0.65356445,0.068847656,0.6582031,-0.08513801,0.013834926,-1.2504644,0.020507813,0.4111328,0.0034179688,0.9111328
17/07/11 05:06:03:707,3852,-0.65356445,0.068847656,0.6582031,-0.08513801,0.013834926,-1.2504644,0.020507813,0.4111328,0.0034179688,0.9111328
17/07/11 05:06:03:712,3857,-0.66308594,0.061035156,0.66308594,-0.13409236,0.057468154,-1.219602,0.020996094,0.4038086,0.00390625,0.9140625
17/07/11 05:06:03:717,3862,-0.66308594,0.061035156,0.66308594,-0.13409236,0.057468154,-1.219602,0.020996094,0.4038086,0.00390625,0.9140625
17/07/11 05:06:03:724,3869,-0.6599121,0.064208984,0.66552734,-0.18411094,0.10748673,-1.1983174,0.020996094,0.39794922,0.0043945313,0.9169922
17/07/11 05:06:03:730,3875,-0.6599121,0.064208984,0.66552734,-0.18411094,0.10748673,-1.1983174,0.020996094,0.39794922,0.0043945313,0.9169922
17/07/11 05:06:03:736,3881,-0.67993164,0.049804688,0.6743164,-0.23625797,0.15750532,-1.1983174,0.020996094,0.39160156,0.0053710938,0.9194336
17/07/11 05:06:03:741,3886,-0.67993164,0.049804688,0.6743164,-0.23625797,0.15750532,-1.1983174,0.020996094,0.39160156,0.0053710938,0.9194336
17/07/11 05:06:03:746,3891,-0.67993164,0.049804688,0.6743164,-0.23625797,0.15750532,-1.1983174,0.020996094,0.39160156,0.0053710938,0.9194336
17/07/11 05:06:03:752,3897,-0.67993164,0.049804688,0.6743164,-0.23625797,0.15750532,-1.1983174,0.020996094,0.39160156,0.0053710938,0.9194336
17/07/11 05:06:03:757,3902,-0.67993164,0.049804688,0.6743164,-0.23625797,0.15750532,-1.1983174,0.020996094,0.39160156,0.0053710938,0.9194336
17/07/11 05:06:03:762,3907,-0.67993164,0.049804688,0.6743164,-0.23625797,0.15750532,-1.1983174,0.020996094,0.39160156,0.0053710938,0.9194336
17/07/11 05:06:03:767,3912,-0.6635742,0.033935547,0.6694336,-0.26073515,0.17559715,-1.2259873,0.020996094,0.38476563,0.0068359375,0.9223633
17/07/11 05:06:03:772,3917,-0.64624023,0.032470703,0.7006836,-0.2202946,0.1436704,-1.2770702,0.016601563,0.36523438,0.009765625,0.93066406
17/07/11 05:06:03:777,3922,-0.64624023,0.032470703,0.7006836,-0.2202946,0.1436704,-1.2770702,0.016601563,0.36523438,0.009765625,0.93066406
17/07/11 05:06:03:782,3927,-0.6298828,0.032714844,0.69873047,-0.21816614,0.14686306,-1.3036758,0.015625,0.35888672,0.010253906,0.93310547
17/07/11 05:06:03:788,3933,-0.6298828,0.032714844,0.69873047,-0.21816614,0.14686306,-1.3036758,0.015625,0.35888672,0.010253906,0.93310547
17/07/11 05:06:03:793,3938,-0.6298828,0.032714844,0.69873047,-0.21816614,0.14686306,-1.3036758,0.015625,0.35888672,0.010253906,0.93310547
17/07/11 05:06:03:798,3943,-0.6298828,0.032714844,0.69873047,-0.21816614,0.14686306,-1.3036758,0.015625,0.35888672,0.010253906,0.93310547
17/07/11 05:06:03:803,3948,-0.6298828,0.032714844,0.69873047,-0.21816614,0.14686306,-1.3036758,0.015625,0.35888672,0.010253906,0.93310547
17/07/11 05:06:03:808,3953,-0.6298828,0.032714844,0.69873047,-0.21816614,0.14686306,-1.3036758,0.015625,0.35888672,0.010253906,0.93310547
17/07/11 05:06:03:814,3959,-0.638916,0.011474609,0.71240234,-0.21923037,0.15005574,-1.3356025,0.0146484375,0.35302734,0.011230469,0.9350586
17/07/11 05:06:03:819,3964,-0.57958984,-0.0031738281,0.7253418,-0.16708334,0.10110138,-1.399456,0.010253906,0.34033203,0.012207031,0.9399414
17/07/11 05:06:03:825,3970,-0.57470703,0.015625,0.73828125,-0.11919321,0.06278928,-1.3973275,0.0087890625,0.3330078,0.012207031,0.9423828
17/07/11 05:06:03:829,3974,-0.57470703,0.015625,0.73828125,-0.11919321,0.06278928,-1.3973275,0.0087890625,0.3330078,0.012207031,0.9423828
17/07/11 05:06:03:834,3979,-0.5686035,0.030029297,0.7507324,-0.08726646,0.03192675,-1.4058414,0.0078125,0.3251953,0.0126953125,0.9453125
17/07/11 05:06:03:840,3985,-0.5686035,0.030029297,0.7507324,-0.08726646,0.03192675,-1.4058414,0.0078125,0.3251953,0.0126953125,0.9453125
17/07/11 05:06:03:845,3990,-0.5686035,0.030029297,0.7507324,-0.08726646,0.03192675,-1.4058414,0.0078125,0.3251953,0.0126953125,0.9453125
17/07/11 05:06:03:850,3995,-0.5686035,0.030029297,0.7507324,-0.08726646,0.03192675,-1.4058414,0.0078125,0.3251953,0.0126953125,0.9453125
17/07/11 05:06:03:855,4000,-0.5686035,0.030029297,0.7507324,-0.08726646,0.03192675,-1.4058414,0.0078125,0.3251953,0.0126953125,0.9453125
17/07/11 05:06:03:860,4005,-0.5686035,0.030029297,0.7507324,-0.08726646,0.03192675,-1.4058414,0.0078125,0.3251953,0.0126953125,0.9453125
17/07/11 05:06:03:865,4010,-0.5595703,0.041503906,0.7595215,-0.07555998,0.015963376,-1.4281901,0.008300781,0.31835938,0.013183594,0.9477539
17/07/11 05:06:03:870,4015,-0.52685547,0.024169922,0.7717285,-0.086202234,0.019156052,-1.4952363,0.009765625,0.3046875,0.014160156,0.95214844
17/07/11 05:06:03:875,4020,-0.4963379,0.032714844,0.78808594,-0.08726646,0.022348728,-1.5101354,0.009277344,0.29589844,0.014160156,0.9550781
17/07/11 05:06:03:880,4025,-0.4892578,0.037597656,0.79541016,-0.09045913,0.03192675,-1.5090712,0.009765625,0.28759766,0.0146484375,0.95751953
17/07/11 05:06:03:885,4030,-0.4892578,0.037597656,0.79541016,-0.09045913,0.03192675,-1.5090712,0.009765625,0.28759766,0.0146484375,0.95751953
17/07/11 05:06:03:891,4036,-0.48950195,0.030761719,0.79663086,-0.09578026,0.041504778,-1.517585,0.010253906,0.27978516,0.015136719,0.95947266
17/07/11 05:06:03:897,4042,-0.48950195,0.030761719,0.79663086,-0.09578026,0.041504778,-1.517585,0.010253906,0.27978516,0.015136719,0.95947266
17/07/11 05:06:03:902,4047,-0.48950195,0.030761719,0.79663086,-0.09578026,0.041504778,-1.517585,0.010253906,0.27978516,0.015136719,0.95947266
17/07/11 05:06:03:908,4053,-0.48950195,0.030761719,0.79663086,-0.09578026,0.041504778,-1.517585,0.010253906,0.27978516,0.015136719,0.95947266
17/07/11 05:06:03:913,4058,-0.48950195,0.030761719,0.79663086,-0.09578026,0.041504778,-1.517585,0.010253906,0.27978516,0.015136719,0.95947266
17/07/11 05:06:03:919,4064,-0.48950195,0.030761719,0.79663086,-0.09578026,0.041504778,-1.517585,0.010253906,0.27978516,0.015136719,0.95947266
17/07/11 05:06:03:924,4069,-0.47827148,0.026367188,0.798584,-0.10216561,0.05001858,-1.5346125,0.010253906,0.27246094,0.015625,0.96191406
17/07/11 05:06:03:929,4074,-0.44995117,0.0146484375,0.8186035,-0.086202234,0.018091828,-1.5761174,0.009765625,0.25732422,0.016601563,0.9658203
17/07/11 05:06:03:934,4079,-0.43823242,0.022460938,0.81640625,-0.06278928,-0.021284502,-1.5963377,0.0087890625,0.24902344,0.016601563,0.9682617
17/07/11 05:06:03:939,4084,-0.44140625,0.03955078,0.8286133,-0.046825904,-0.046825904,-1.6197506,0.0087890625,0.24902344,0.016601563,0.9682617
17/07/11 05:06:03:944,4089,-0.44140625,0.03955078,0.8286133,-0.046825904,-0.046825904,-1.6197506,0.0087890625,0.24121094,0.016601563,0.97021484
17/07/11 05:06:03:949,4094,-0.42211914,0.036376953,0.8364258,-0.04789013,-0.057468154,-1.6655123,0.0087890625,0.24121094,0.016601563,0.97021484
17/07/11 05:06:03:954,4099,-0.42211914,0.036376953,0.8364258,-0.04789013,-0.057468154,-1.6655123,0.0107421875,0.234375,0.016601563,0.9716797
17/07/11 05:06:03:959,4104,-0.4020996,0.033935547,0.84643555,-0.046825904,-0.059596606,-1.7134024,0.0107421875,0.234375,0.016601563,0.9716797
17/07/11 05:06:03:965,4110,-0.4020996,0.033935547,0.84643555,-0.046825904,-0.059596606,-1.7134024,0.0107421875,0.234375,0.016601563,0.9716797
17/07/11 05:06:03:971,4116,-0.4020996,0.033935547,0.84643555,-0.046825904,-0.059596606,-1.7134024,0.0126953125,0.22558594,0.017089844,0.9736328
17/07/11 05:06:03:976,4121,-0.4020996,0.033935547,0.84643555,-0.046825904,-0.059596606,-1.7134024,0.0126953125,0.22558594,0.017089844,0.9736328
17/07/11 05:06:03:981,4126,-0.4020996,0.033935547,0.84643555,-0.046825904,-0.059596606,-1.7134024,0.0126953125,0.22558594,0.017089844,0.9736328
17/07/11 05:06:03:986,4131,-0.4020996,0.033935547,0.84643555,-0.046825904,-0.059596606,-1.7134024,0.0126953125,0.22558594,0.017089844,0.9736328
17/07/11 05:06:03:992,4137,-0.4020996,0.033935547,0.84643555,-0.046825904,-0.059596606,-1.7134024,0.0126953125,0.22558594,0.017089844,0.9736328
17/07/11 05:06:03:998,4143,-0.4020996,0.033935547,0.84643555,-0.046825904,-0.059596606,-1.7134024,0.0126953125,0.22558594,0.017089844,0.9736328
17/07/11 05:06:04:003,4148,-0.4020996,0.033935547,0.84643555,-0.046825904,-0.059596606,-1.7134024,0.0126953125,0.22558594,0.017089844,0.9736328
17/07/11 05:06:04:009,4154,-0.4020996,0.033935547,0.84643555,-0.046825904,-0.059596606,-1.7134024,0.0126953125,0.22558594,0.017089844,0.9736328
17/07/11 05:06:04:014,4159,-0.4020996,0.033935547,0.84643555,-0.046825904,-0.059596606,-1.7134024,0.0126953125,0.22558594,0.017089844,0.9736328
17/07/11 05:06:04:020,4165,-0.4020996,0.033935547,0.84643555,-0.046825904,-0.059596606,-1.7134024,0.0126953125,0.22558594,0.017089844,0.9736328
17/07/11 05:06:04:025,4170,-0.26904297,0.0017089844,0.83740234,-0.04789013,-0.19368897,-1.7527788,0.012207031,0.18798828,0.015136719,0.9819336
17/07/11 05:06:04:031,4176,-0.26904297,0.0017089844,0.83740234,-0.04789013,-0.19368897,-1.7527788,0.012207031,0.18798828,0.015136719,0.9819336
17/07/11 05:06:04:036,4181,-0.26904297,0.0017089844,0.83740234,-0.04789013,-0.19368897,-1.7527788,0.012207031,0.18798828,0.015136719,0.9819336
17/07/11 05:06:04:041,4186,-0.26904297,0.0017089844,0.83740234,-0.04789013,-0.19368897,-1.7527788,0.012207031,0.18798828,0.015136719,0.9819336
17/07/11 05:06:04:046,4191,-0.26904297,0.0017089844,0.83740234,-0.04789013,-0.19368897,-1.7527788,0.012207031,0.18798828,0.015136719,0.9819336
17/07/11 05:06:04:051,4196,-0.26904297,0.0017089844,0.83740234,-0.04789013,-0.19368897,-1.7527788,0.012207031,0.18798828,0.015136719,0.9819336
17/07/11 05:06:04:057,4202,-0.26904297,0.0017089844,0.83740234,-0.04789013,-0.19368897,-1.7527788,0.012207031,0.18798828,0.015136719,0.9819336
17/07/11 05:06:04:063,4208,-0.26904297,0.0017089844,0.83740234,-0.04789013,-0.19368897,-1.7527788,0.012207031,0.18798828,0.015136719,0.9819336
17/07/11 05:06:04:068,4213,-0.26904297,0.0017089844,0.83740234,-0.04789013,-0.19368897,-1.7527788,0.012207031,0.18798828,0.015136719,0.9819336
17/07/11 05:06:04:073,4218,-0.26904297,0.0017089844,0.83740234,-0.04789013,-0.19368897,-1.7527788,0.012207031,0.18798828,0.015136719,0.9819336
17/07/11 05:06:04:078,4223,-0.26904297,0.0017089844,0.83740234,-0.04789013,-0.19368897,-1.7527788,0.012207031,0.18798828,0.015136719,0.9819336
17/07/11 05:06:04:083,4228,-0.26904297,0.0017089844,0.83740234,-0.04789013,-0.19368897,-1.7527788,0.012207031,0.18798828,0.015136719,0.9819336
17/07/11 05:06:04:089,4234,-0.2614746,-0.016845703,0.90112305,0.0031926753,-0.2075239,-1.6420994,0.011230469,0.16552734,0.013183594,0.98583984
17/07/11 05:06:04:093,4238,-0.22949219,0.07080078,0.8989258,0.0042569004,-0.21284503,-1.484594,0.012207031,0.1352539,0.009765625,0.99072266
17/07/11 05:06:04:098,4243,-0.22949219,0.07080078,0.8989258,0.0042569004,-0.21284503,-1.484594,0.012207031,0.1352539,0.009765625,0.99072266
17/07/11 05:06:04:104,4249,-0.22949219,0.07080078,0.8989258,0.0042569004,-0.21284503,-1.484594,0.012207031,0.1352539,0.009765625,0.99072266
17/07/11 05:06:04:109,4254,-0.22949219,0.07080078,0.8989258,0.0042569004,-0.21284503,-1.484594,0.012207031,0.1352539,0.009765625,0.99072266
17/07/11 05:06:04:114,4259,-0.22949219,0.07080078,0.8989258,0.0042569004,-0.21284503,-1.484594,0.012207031,0.1352539,0.009765625,0.99072266
17/07/11 05:06:04:119,4264,-0.22949219,0.07080078,0.8989258,0.0042569004,-0.21284503,-1.484594,0.012207031,0.1352539,0.009765625,0.99072266
17/07/11 05:06:04:125,4270,-0.22949219,0.07080078,0.8989258,0.0042569004,-0.21284503,-1.484594,0.012207031,0.1352539,0.009765625,0.99072266
17/07/11 05:06:04:131,4276,-0.22949219,0.07080078,0.8989258,0.0042569004,-0.21284503,-1.484594,0.012207031,0.1352539,0.009765625,0.99072266
17/07/11 05:06:04:137,4282,-0.22949219,0.07080078,0.8989258,0.0042569004,-0.21284503,-1.484594,0.012207031,0.1352539,0.009765625,0.99072266
17/07/11 05:06:04:142,4287,-0.22949219,0.043701172,0.9016113,0.0042569004,-0.21284503,-1.484594,0.012207031,0.1352539,0.009765625,0.99072266
17/07/11 05:06:04:147,4292,-0.15527344,0.035888672,0.9147949,0.018091828,-0.36822188,-1.3579513,0.014160156,0.08691406,0.0048828125,0.99609375
17/07/11 05:06:04:153,4298,-0.15527344,0.035888672,0.9147949,0.018091828,-0.36822188,-1.3579513,0.014160156,0.08691406,0.0048828125,0.99609375
17/07/11 05:06:04:158,4303,-0.15527344,0.035888672,0.9147949,0.018091828,-0.36822188,-1.3579513,0.014160156,0.08691406,0.0048828125,0.99609375
17/07/11 05:06:04:166,4311,-0.15527344,0.035888672,0.9147949,0.018091828,-0.36822188,-1.3579513,0.014160156,0.08691406,0.0048828125,0.99609375
17/07/11 05:06:04:171,4316,-0.15527344,0.035888672,0.9147949,0.018091828,-0.36822188,-1.3579513,0.014160156,0.08691406,0.0048828125,0.99609375
17/07/11 05:06:04:177,4322,-0.15527344,0.035888672,0.9147949,0.018091828,-0.36822188,-1.3579513,0.014160156,0.08691406,0.0048828125,0.99609375
17/07/11 05:06:04:191,4336,-0.15527344,0.035888672,0.9147949,0.018091828,-0.36822188,-1.3579513,0.014160156,0.08691406,0.0048828125,0.99609375
17/07/11 05:06:04:196,4341,-0.15527344,0.035888672,0.9147949,0.018091828,-0.36822188,-1.3579513,0.014160156,0.08691406,0.0048828125,0.99609375
17/07/11 05:06:04:201,4346,-0.056640625,0.04321289,0.92749023,0.010642251,-0.6076725,-1.3983917,0.017578125,0.048339844,-0.0087890625,0.99853516
17/07/11 05:06:04:207,4352,-0.056640625,0.04321289,0.92749023,0.010642251,-0.6076725,-1.3983917,0.017578125,0.048339844,-0.0087890625,0.99853516
17/07/11 05:06:04:212,4357,-0.056640625,0.04321289,0.92749023,0.010642251,-0.6076725,-1.3983917,0.017578125,0.048339844,-0.0087890625,0.99853516
17/07/11 05:06:04:217,4362,-0.056640625,0.04321289,0.92749023,0.010642251,-0.6076725,-1.3983917,0.017578125,0.048339844,-0.0087890625,0.99853516
17/07/11 05:06:04:222,4367,-0.056640625,0.04321289,0.92749023,0.010642251,-0.6076725,-1.3983917,0.017578125,0.048339844,-0.0087890625,0.99853516
17/07/11 05:06:04:227,4372,-0.056640625,0.04321289,0.92749023,0.010642251,-0.6076725,-1.3983917,0.017578125,0.048339844,-0.0087890625,0.99853516
17/07/11 05:06:04:232,4377,-0.06689453,0.04345703,0.9248047,0.0053211255,-0.6672691,-1.3888137,0.018066406,0.041503906,-0.01171875,0.99853516
17/07/11 05:06:04:237,4382,0.05102539,0.044677734,0.9309082,-0.03511943,-0.8481874,-1.399456,0.01953125,0.00390625,-0.029296875,0.99902344
17/07/11 05:06:04:242,4387,0.060302734,0.036621094,0.92944336,-0.051082805,-0.87585723,-1.3462447,0.01953125,-0.0034179688,-0.033691406,0.99902344
17/07/11 05:06:04:247,4392,0.060302734,0.036621094,0.92944336,-0.051082805,-0.87585723,-1.3462447,0.01953125,-0.0034179688,-0.033691406,0.99902344
17/07/11 05:06:04:252,4397,0.060302734,0.036621094,0.92944336,-0.051082805,-0.87585723,-1.3462447,0.01953125,-0.0034179688,-0.033691406,0.99902344
17/07/11 05:06:04:257,4402,0.060302734,0.036621094,0.92944336,-0.051082805,-0.87585723,-1.3462447,0.01953125,-0.0034179688,-0.033691406,0.99902344
17/07/11 05:06:04:262,4407,0.060302734,0.036621094,0.92944336,-0.051082805,-0.87585723,-1.3462447,0.01953125,-0.0034179688,-0.033691406,0.99902344
17/07/11 05:06:04:267,4412,0.060302734,0.036621094,0.92944336,-0.051082805,-0.87585723,-1.3462447,0.01953125,-0.0034179688,-0.033691406,0.99902344
17/07/11 05:06:04:273,4418,0.060302734,0.036621094,0.92944336,-0.051082805,-0.87585723,-1.3462447,0.01953125,-0.0034179688,-0.033691406,0.99902344
17/07/11 05:06:04:277,4422,0.060302734,0.036621094,0.92944336,-0.051082805,-0.87585723,-1.3462447,0.01953125,-0.0034179688,-0.033691406,0.99902344
17/07/11 05:06:04:285,4430,0.060302734,0.036621094,0.92944336,-0.051082805,-0.87585723,-1.3462447,0.01953125,-0.0034179688,-0.033691406,0.99902344
17/07/11 05:06:04:290,4435,0.060302734,0.036621094,0.92944336,-0.051082805,-0.87585723,-1.3462447,0.01953125,-0.0034179688,-0.033691406,0.99902344
17/07/11 05:06:04:295,4440,0.060302734,0.036621094,0.92944336,-0.051082805,-0.87585723,-1.3462447,0.01953125,-0.0034179688,-0.033691406,0.99902344
17/07/11 05:06:04:301,4446,0.049560547,0.041748047,0.9272461,-0.05640393,-0.89288485,-1.3058043,0.019042969,-0.010253906,-0.037597656,0.99902344
17/07/11 05:06:04:306,4451,0.049560547,0.041748047,0.9272461,-0.05640393,-0.89288485,-1.3058043,0.019042969,-0.010253906,-0.037597656,0.99902344
17/07/11 05:06:04:315,4460,0.049560547,0.041748047,0.9272461,-0.05640393,-0.89288485,-1.3058043,0.019042969,-0.010253906,-0.037597656,0.99902344
17/07/11 05:06:04:321,4466,0.049560547,0.041748047,0.9272461,-0.05640393,-0.89288485,-1.3058043,0.019042969,-0.010253906,-0.037597656,0.99902344
17/07/11 05:06:04:327,4472,0.09765625,0.057373047,0.9226074,-0.127707,-0.96099526,-1.3483732,0.019042969,-0.04248047,-0.059570313,0.9970703
17/07/11 05:06:04:332,4477,0.09765625,0.057373047,0.9226074,-0.127707,-0.96099526,-1.3483732,0.019042969,-0.04248047,-0.059570313,0.9970703
17/07/11 05:06:04:337,4482,0.09765625,0.057373047,0.9226074,-0.127707,-0.96099526,-1.3483732,0.019042969,-0.04248047,-0.059570313,0.9970703
17/07/11 05:06:04:342,4487,0.18066406,0.051757813,0.92089844,-0.203267,-1.2408864,-1.2621709,0.017089844,-0.06933594,-0.080566406,0.9941406
17/07/11 05:06:04:347,4492,0.18066406,0.051757813,0.92089844,-0.203267,-1.2408864,-1.2621709,0.017089844,-0.06933594,-0.080566406,0.9941406
17/07/11 05:06:04:352,4497,0.1953125,0.05834961,0.9116211,-0.2245515,-1.2494003,-1.2313085,0.016601563,-0.076660156,-0.08642578,0.99316406
17/07/11 05:06:04:357,4502,0.1953125,0.05834961,0.9116211,-0.2245515,-1.2494003,-1.2313085,0.016601563,-0.076660156,-0.08642578,0.99316406
17/07/11 05:06:04:362,4507,0.20117188,0.044189453,0.9152832,-0.2586067,-1.238758,-1.2068312,0.015625,-0.08203125,-0.092285156,0.9921875
17/07/11 05:06:04:367,4512,0.20117188,0.044189453,0.9152832,-0.2586067,-1.238758,-1.2068312,0.015625,-0.08203125,-0.092285156,0.9921875
17/07/11 05:06:04:372,4517,0.21484375,0.033935547,0.9172363,-0.2713774,-1.2355653,-1.1812899,0.0146484375,-0.087890625,-0.09814453,0.99121094
17/07/11 05:06:04:377,4522,0.21484375,0.033935547,0.9172363,-0.2713774,-1.2355653,-1.1812899,0.0146484375,-0.087890625,-0.09814453,0.99121094
17/07/11 05:06:04:382,4527,0.19946289,0.041015625,0.9108887,-0.2671205,-1.2472718,-1.1600053,0.013183594,-0.09326172,-0.104003906,0.9897461
17/07/11 05:06:04:388,4533,0.19946289,0.041015625,0.9108887,-0.2671205,-1.2472718,-1.1600053,0.013183594,-0.09326172,-0.104003906,0.9897461
17/07/11 05:06:04:393,4538,0.2199707,0.056396484,0.90649414,-0.27669853,-1.2589782,-1.167455,0.012207031,-0.09814453,-0.10986328,0.98876953
17/07/11 05:06:04:401,4546,0.24975586,0.061523438,0.91381836,-0.30649683,-1.2887766,-1.1642623,0.01171875,-0.10449219,-0.115722656,0.9873047
17/07/11 05:06:04:406,4551,0.24975586,0.061523438,0.91381836,-0.30649683,-1.2887766,-1.1642623,0.01171875,-0.10449219,-0.115722656,0.9873047
17/07/11 05:06:04:411,4556,0.20581055,0.053466797,0.90625,-0.3267171,-1.3111253,-1.1429777,0.0107421875,-0.110839844,-0.12207031,0.9863281
17/07/11 05:06:04:416,4561,0.20581055,0.053466797,0.90625,-0.3267171,-1.3111253,-1.1429777,0.0107421875,-0.110839844,-0.12207031,0.9863281
17/07/11 05:06:04:421,4566,0.20581055,0.053466797,0.90625,-0.3267171,-1.3111253,-1.1429777,0.0107421875,-0.110839844,-0.12207031,0.9863281
17/07/11 05:06:04:427,4572,0.20581055,0.053466797,0.90625,-0.3267171,-1.3111253,-1.1429777,0.0107421875,-0.110839844,-0.12207031,0.9863281
17/07/11 05:06:04:432,4577,0.20581055,0.053466797,0.90625,-0.3267171,-1.3111253,-1.1429777,0.0107421875,-0.110839844,-0.12207031,0.9863281
17/07/11 05:06:04:438,4583,0.20581055,0.053466797,0.90625,-0.3267171,-1.3111253,-1.1429777,0.0107421875,-0.110839844,-0.12207031,0.9863281
17/07/11 05:06:04:444,4589,0.20581055,0.053466797,0.90625,-0.3267171,-1.3111253,-1.1429777,0.0107421875,-0.110839844,-0.12207031,0.9863281
17/07/11 05:06:04:450,4595,0.33251953,0.04296875,0.90478516,-0.41291934,-1.4377681,-0.9801513,0.0068359375,-0.13574219,-0.14697266,0.9794922
17/07/11 05:06:04:455,4600,0.33251953,0.04296875,0.90478516,-0.41291934,-1.4377681,-0.9801513,0.0068359375,-0.13574219,-0.14697266,0.9794922
17/07/11 05:06:04:460,4605,0.31079102,0.041259766,0.8964844,-0.43207538,-1.4526672,-0.9067198,0.0053710938,-0.13964844,-0.1538086,0.97802734
17/07/11 05:06:04:465,4610,0.31079102,0.041259766,0.8964844,-0.43207538,-1.4526672,-0.9067198,0.0053710938,-0.13964844,-0.1538086,0.97802734
17/07/11 05:06:04:470,4615,0.30371094,0.04345703,0.89086914,-0.4448461,-1.4452177,-0.88011414,0.0034179688,-0.14453125,-0.16015625,0.9760742
17/07/11 05:06:04:475,4620,0.30371094,0.04345703,0.89086914,-0.4448461,-1.4452177,-0.88011414,0.0034179688,-0.14453125,-0.16015625,0.9760742
17/07/11 05:06:04:480,4625,0.30371094,0.04345703,0.89086914,-0.4448461,-1.4452177,-0.88011414,0.0034179688,-0.14453125,-0.16015625,0.9760742
17/07/11 05:06:04:485,4630,0.30371094,0.04345703,0.89086914,-0.4448461,-1.4452177,-0.88011414,0.0034179688,-0.14453125,-0.16015625,0.9760742
17/07/11 05:06:04:490,4635,0.30371094,0.04345703,0.89086914,-0.4448461,-1.4452177,-0.88011414,0.0034179688,-0.14453125,-0.16015625,0.9760742
