global time,time(in ms),AccX,AccY,AccZ,GyroX,GyroY,GyroZ,QuatX,QuatY,QuatZ,QuatW
17/07/11 05:13:41:309,6,-0.77124023,0.038085938,0.5605469,-0.038312104,-0.044697456,0.0063853506,0.020019531,0.45214844,0.0,0.89160156
17/07/11 05:13:41:314,11,-0.77124023,0.038085938,0.5605469,-0.038312104,-0.044697456,0.0063853506,0.020019531,0.45214844,0.0,0.89160156
17/07/11 05:13:41:319,16,-0.77075195,0.034423828,0.5654297,-0.03937633,-0.044697456,0.0074495757,0.020507813,0.45263672,0.0,0.8911133
17/07/11 05:13:41:325,22,-0.77075195,0.034423828,0.5654297,-0.03937633,-0.044697456,0.0074495757,0.020507813,0.45263672,0.0,0.8911133
17/07/11 05:13:41:331,28,-0.765625,0.03564453,0.5632324,-0.038312104,-0.04576168,0.0074495757,0.020019531,0.45214844,0.0,0.89160156
17/07/11 05:13:41:336,33,-0.7609863,0.03491211,0.5671387,-0.037247878,-0.046825904,0.0063853506,0.020507813,0.45117188,0.0,0.89208984
17/07/11 05:13:41:342,39,-0.7609863,0.03491211,0.5671387,-0.037247878,-0.046825904,0.0063853506,0.020507813,0.45117188,0.0,0.89208984
17/07/11 05:13:41:348,45,-0.7609863,0.03491211,0.5671387,-0.037247878,-0.046825904,0.0063853506,0.020507813,0.45117188,0.0,0.89208984
17/07/11 05:13:41:353,50,-0.77246094,0.03466797,0.5629883,-0.037247878,-0.044697456,0.008513801,0.020507813,0.4506836,0.0,0.89208984
17/07/11 05:13:41:359,56,-0.7722168,0.03515625,0.56103516,-0.036183655,-0.04576168,0.0074495757,0.020019531,0.45117188,0.0,0.89208984
17/07/11 05:13:41:366,63,-0.7722168,0.03515625,0.56103516,-0.036183655,-0.04576168,0.0074495757,0.020019531,0.45117188,0.0,0.89208984
17/07/11 05:13:41:372,69,-0.76293945,0.036621094,0.5629883,-0.036183655,-0.04789013,0.0053211255,0.020019531,0.45214844,0.0,0.89160156
17/07/11 05:13:41:379,76,-0.76293945,0.036621094,0.5629883,-0.036183655,-0.04789013,0.0053211255,0.020019531,0.45214844,0.0,0.89160156
17/07/11 05:13:41:385,82,-0.76293945,0.036621094,0.5629883,-0.036183655,-0.04789013,0.0053211255,0.020019531,0.45214844,0.0,0.89160156
17/07/11 05:13:41:390,87,-0.7631836,0.03540039,0.56152344,-0.038312104,-0.04576168,0.0063853506,0.020507813,0.45117188,0.0,0.89208984
17/07/11 05:13:41:396,93,-0.7663574,0.033203125,0.56469727,-0.036183655,-0.04363323,0.0074495757,0.020507813,0.4506836,0.0,0.89208984
17/07/11 05:13:41:402,99,-0.7722168,0.03466797,0.5605469,-0.036183655,-0.04363323,0.0074495757,0.020019531,0.4506836,0.0,0.89208984
17/07/11 05:13:41:407,104,-0.7722168,0.03466797,0.5605469,-0.036183655,-0.04363323,0.0074495757,0.020019531,0.4506836,0.0,0.89208984
17/07/11 05:13:41:412,109,-0.7722168,0.03466797,0.5605469,-0.036183655,-0.04363323,0.0074495757,0.020019531,0.4506836,0.0,0.89208984
17/07/11 05:13:41:417,114,-0.7722168,0.03466797,0.5605469,-0.036183655,-0.04363323,0.0074495757,0.020019531,0.4506836,0.0,0.89208984
17/07/11 05:13:41:422,119,-0.7722168,0.03466797,0.5605469,-0.036183655,-0.04363323,0.0074495757,0.020019531,0.4506836,0.0,0.89208984
17/07/11 05:13:41:428,125,-0.7722168,0.03466797,0.5605469,-0.036183655,-0.04363323,0.0074495757,0.020019531,0.4506836,0.0,0.89208984
17/07/11 05:13:41:433,130,-0.77075195,0.034423828,0.5666504,-0.038312104,-0.04576168,0.0053211255,0.020019531,0.45117188,0.0,0.89208984
17/07/11 05:13:41:438,135,-0.76538086,0.034179688,0.5637207,-0.038312104,-0.04576168,0.0053211255,0.020507813,0.4506836,0.0,0.89208984
17/07/11 05:13:41:443,140,-0.77001953,0.03515625,0.5632324,-0.037247878,-0.044697456,0.0053211255,0.020019531,0.4506836,0.0,0.89208984
17/07/11 05:13:41:448,145,-0.7746582,0.033935547,0.56347656,-0.038312104,-0.04576168,0.0063853506,0.020019531,0.45117188,0.0,0.89208984
17/07/11 05:13:41:453,150,-0.7746582,0.033935547,0.56347656,-0.038312104,-0.04576168,0.0063853506,0.020019531,0.45117188,0.0,0.89208984
17/07/11 05:13:41:458,155,-0.7746582,0.032226563,0.5595703,-0.038312104,-0.04576168,0.0063853506,0.020019531,0.45117188,0.0,0.89208984
17/07/11 05:13:41:463,160,-0.76293945,0.032226563,0.5595703,-0.037247878,-0.04576168,0.0063853506,0.020019531,0.45166016,0.0,0.89160156
17/07/11 05:13:41:468,165,-0.76293945,0.032226563,0.5595703,-0.037247878,-0.04576168,0.0063853506,0.020019531,0.45166016,0.0,0.89160156
17/07/11 05:13:41:473,170,-0.76293945,0.032226563,0.5595703,-0.037247878,-0.04576168,0.0063853506,0.020019531,0.45166016,0.0,0.89160156
17/07/11 05:13:41:479,176,-0.76293945,0.032226563,0.5595703,-0.037247878,-0.04576168,0.0063853506,0.020019531,0.45166016,0.0,0.89160156
17/07/11 05:13:41:484,181,-0.76293945,0.032226563,0.5595703,-0.037247878,-0.04576168,0.0063853506,0.020019531,0.45166016,0.0,0.89160156
17/07/11 05:13:41:489,186,-0.76293945,0.032226563,0.5595703,-0.037247878,-0.04576168,0.0063853506,0.020019531,0.45166016,0.0,0.89160156
17/07/11 05:13:41:494,191,-0.7709961,0.035888672,0.56591797,-0.037247878,-0.046825904,0.0074495757,0.019042969,0.45166016,0.0,0.89160156
17/07/11 05:13:41:499,196,-0.7675781,0.033447266,0.5656738,-0.037247878,-0.046825904,0.0063853506,0.020507813,0.45166016,0.0,0.89160156
17/07/11 05:13:41:504,201,-0.7709961,0.03540039,0.55810547,-0.037247878,-0.046825904,0.0074495757,0.020019531,0.45117188,0.0,0.89208984
17/07/11 05:13:41:509,206,-0.76538086,0.033203125,0.5656738,-0.037247878,-0.046825904,0.0053211255,0.020019531,0.45166016,0.0,0.89160156
17/07/11 05:13:41:515,212,-0.76538086,0.033203125,0.5656738,-0.037247878,-0.046825904,0.0053211255,0.020019531,0.45166016,0.0,0.89160156
17/07/11 05:13:41:520,217,-0.7663574,0.037597656,0.55981445,-0.036183655,-0.04576168,0.0063853506,0.020019531,0.45117188,0.0,0.89208984
17/07/11 05:13:41:525,222,-0.7663574,0.037597656,0.55981445,-0.036183655,-0.04576168,0.0063853506,0.020019531,0.45117188,0.0,0.89208984
17/07/11 05:13:41:530,227,-0.7722168,0.035888672,0.55981445,-0.037247878,-0.044697456,0.0053211255,0.020507813,0.45166016,0.0,0.89160156
17/07/11 05:13:41:537,234,-0.7722168,0.035888672,0.55981445,-0.037247878,-0.044697456,0.0053211255,0.020507813,0.45166016,0.0,0.89160156
17/07/11 05:13:41:542,239,-0.7675781,0.036376953,0.5637207,-0.037247878,-0.04576168,0.0063853506,0.020507813,0.45214844,0.0,0.89160156
17/07/11 05:13:41:547,244,-0.76586914,0.034179688,0.5605469,-0.036183655,-0.04576168,0.0053211255,0.020507813,0.45166016,4.8828125E-4,0.89160156
17/07/11 05:13:41:553,250,-0.76586914,0.034179688,0.5605469,-0.036183655,-0.04576168,0.0053211255,0.020507813,0.45166016,4.8828125E-4,0.89160156
17/07/11 05:13:41:558,255,-0.76000977,0.035888672,0.56225586,-0.036183655,-0.044697456,0.0042569004,0.020019531,0.45166016,0.0,0.89160156
17/07/11 05:13:41:563,260,-0.76000977,0.035888672,0.56225586,-0.036183655,-0.044697456,0.0042569004,0.020019531,0.45166016,0.0,0.89160156
17/07/11 05:13:41:569,266,-0.77197266,0.03466797,0.56103516,-0.037247878,-0.044697456,0.0074495757,0.020019531,0.45117188,0.0,0.89208984
17/07/11 05:13:41:574,271,-0.77197266,0.03466797,0.56103516,-0.037247878,-0.044697456,0.0074495757,0.020019531,0.45117188,0.0,0.89208984
17/07/11 05:13:41:579,276,-0.76953125,0.038085938,0.56152344,-0.037247878,-0.04576168,0.0053211255,0.020019531,0.45117188,0.0,0.89208984
17/07/11 05:13:41:584,281,-0.76953125,0.038085938,0.56152344,-0.037247878,-0.04576168,0.0053211255,0.020019531,0.45166016,0.0,0.89160156
17/07/11 05:13:41:589,286,-0.76660156,0.03491211,0.56469727,-0.036183655,-0.04576168,0.0074495757,0.020996094,0.45214844,4.8828125E-4,0.89160156
17/07/11 05:13:41:594,291,-0.76660156,0.03491211,0.56469727,-0.036183655,-0.04576168,0.0074495757,0.020996094,0.45214844,4.8828125E-4,0.89160156
17/07/11 05:13:41:601,298,-0.76660156,0.03491211,0.56469727,-0.036183655,-0.04576168,0.0074495757,0.020996094,0.45214844,4.8828125E-4,0.89160156
17/07/11 05:13:41:605,302,-0.76660156,0.03491211,0.56469727,-0.036183655,-0.04576168,0.0074495757,0.020996094,0.45214844,4.8828125E-4,0.89160156
17/07/11 05:13:41:610,307,-0.76660156,0.03491211,0.56469727,-0.036183655,-0.04576168,0.0074495757,0.020996094,0.45214844,4.8828125E-4,0.89160156
17/07/11 05:13:41:616,313,-0.76660156,0.03491211,0.56469727,-0.036183655,-0.04576168,0.0074495757,0.020996094,0.45214844,4.8828125E-4,0.89160156
17/07/11 05:13:41:621,318,-0.76831055,0.041259766,0.5649414,-0.036183655,-0.04576168,0.0074495757,0.020507813,0.45166016,0.0,0.89160156
17/07/11 05:13:41:626,323,-0.7675781,0.036376953,0.5683594,-0.038312104,-0.04576168,0.0053211255,0.020507813,0.45166016,0.0,0.89160156
17/07/11 05:13:41:631,328,-0.7705078,0.03564453,0.55737305,-0.037247878,-0.04576168,0.0053211255,0.020996094,0.4506836,4.8828125E-4,0.89208984
17/07/11 05:13:41:636,333,-0.7692871,0.035888672,0.56347656,-0.037247878,-0.046825904,0.0053211255,0.020996094,0.45117188,4.8828125E-4,0.89208984
17/07/11 05:13:41:641,338,-0.7663574,0.032226563,0.5649414,-0.037247878,-0.04576168,0.0053211255,0.020507813,0.45166016,0.0,0.89160156
17/07/11 05:13:41:646,343,-0.7663574,0.032226563,0.5649414,-0.037247878,-0.04576168,0.0053211255,0.020507813,0.45166016,0.0,0.89160156
17/07/11 05:13:41:651,348,-0.7663574,0.032226563,0.5649414,-0.037247878,-0.04576168,0.0053211255,0.020507813,0.45166016,0.0,0.89160156
17/07/11 05:13:41:656,353,-0.7663574,0.032226563,0.5649414,-0.037247878,-0.04576168,0.0053211255,0.020507813,0.45166016,0.0,0.89160156
17/07/11 05:13:41:661,358,-0.7663574,0.032226563,0.5649414,-0.037247878,-0.04576168,0.0053211255,0.020507813,0.45166016,0.0,0.89160156
17/07/11 05:13:41:667,364,-0.7663574,0.032226563,0.5649414,-0.037247878,-0.04576168,0.0053211255,0.020507813,0.45166016,0.0,0.89160156
17/07/11 05:13:41:671,368,-0.76416016,0.036865234,0.56152344,-0.037247878,-0.04576168,0.0063853506,0.020019531,0.45117188,0.0,0.89208984
17/07/11 05:13:41:677,374,-0.77563477,0.036376953,0.5593262,-0.037247878,-0.04576168,0.0074495757,0.020507813,0.45166016,0.0,0.89160156
17/07/11 05:13:41:682,379,-0.7675781,0.03515625,0.5588379,-0.036183655,-0.046825904,0.0053211255,0.020507813,0.45214844,0.0,0.89160156
17/07/11 05:13:41:688,385,-0.7675781,0.03515625,0.5588379,-0.036183655,-0.046825904,0.0053211255,0.020507813,0.45214844,0.0,0.89160156
17/07/11 05:13:41:693,390,-0.7624512,0.032958984,0.56518555,-0.036183655,-0.04576168,0.0063853506,0.020507813,0.45263672,0.0,0.8911133
17/07/11 05:13:41:698,395,-0.76342773,0.03540039,0.56518555,-0.037247878,-0.04576168,0.0074495757,0.020019531,0.45214844,0.0,0.89160156
17/07/11 05:13:41:703,400,-0.76342773,0.03540039,0.56518555,-0.037247878,-0.04576168,0.0074495757,0.020019531,0.45214844,0.0,0.89160156
17/07/11 05:13:41:708,405,-0.7702637,0.033935547,0.5595703,-0.037247878,-0.04576168,0.0074495757,0.020507813,0.45166016,0.0,0.89160156
17/07/11 05:13:41:713,410,-0.7702637,0.033935547,0.5595703,-0.037247878,-0.04576168,0.0074495757,0.020507813,0.45166016,0.0,0.89160156
17/07/11 05:13:41:718,415,-0.7702637,0.033935547,0.5595703,-0.037247878,-0.04576168,0.0074495757,0.020507813,0.45166016,0.0,0.89160156
17/07/11 05:13:41:723,420,-0.77612305,0.03540039,0.5600586,-0.036183655,-0.044697456,0.0074495757,0.020019531,0.45214844,0.0,0.89160156
17/07/11 05:13:41:728,425,-0.77612305,0.03540039,0.5600586,-0.036183655,-0.044697456,0.0074495757,0.020019531,0.45214844,0.0,0.89160156
17/07/11 05:13:41:733,430,-0.765625,0.035888672,0.56396484,-0.037247878,-0.04576168,0.0053211255,0.020019531,0.45263672,0.0,0.8911133
17/07/11 05:13:41:738,435,-0.765625,0.035888672,0.56396484,-0.037247878,-0.04576168,0.0053211255,0.020019531,0.45263672,0.0,0.8911133
17/07/11 05:13:41:743,440,-0.7675781,0.033203125,0.56396484,-0.038312104,-0.04576168,0.0063853506,0.020507813,0.45214844,0.0,0.89160156
17/07/11 05:13:41:748,445,-0.7675781,0.033203125,0.56396484,-0.038312104,-0.04576168,0.0063853506,0.020507813,0.45214844,0.0,0.89160156
17/07/11 05:13:41:753,450,-0.76464844,0.033935547,0.56396484,-0.038312104,-0.04576168,0.0063853506,0.020019531,0.45166016,0.0,0.89160156
17/07/11 05:13:41:758,455,-0.7692871,0.03149414,0.5656738,-0.037247878,-0.04576168,0.0074495757,0.020019531,0.45117188,0.0,0.89208984
17/07/11 05:13:41:763,460,-0.7692871,0.03149414,0.5656738,-0.037247878,-0.04576168,0.0074495757,0.020019531,0.45117188,0.0,0.89208984
17/07/11 05:13:41:768,465,-0.76708984,0.035888672,0.56152344,-0.036183655,-0.04576168,0.0053211255,0.019042969,0.45117188,0.0,0.89208984
17/07/11 05:13:41:773,470,-0.76708984,0.035888672,0.56152344,-0.036183655,-0.04576168,0.0053211255,0.019042969,0.45117188,0.0,0.89208984
17/07/11 05:13:41:778,475,-0.76708984,0.035888672,0.56152344,-0.036183655,-0.04576168,0.0053211255,0.019042969,0.45117188,0.0,0.89208984
17/07/11 05:13:41:784,481,-0.76416016,0.037353516,0.56274414,-0.037247878,-0.046825904,0.0053211255,0.01953125,0.45117188,0.0,0.89208984
17/07/11 05:13:41:789,486,-0.77197266,0.034179688,0.56469727,-0.037247878,-0.04576168,0.0074495757,0.020507813,0.45117188,0.0,0.89208984
17/07/11 05:13:41:794,491,-0.77197266,0.034179688,0.56469727,-0.037247878,-0.04576168,0.0074495757,0.020507813,0.45117188,0.0,0.89208984
17/07/11 05:13:41:799,496,-0.765625,0.034179688,0.5661621,-0.038312104,-0.044697456,0.0063853506,0.020019531,0.45166016,0.0,0.89160156
17/07/11 05:13:41:804,501,-0.765625,0.034179688,0.5661621,-0.038312104,-0.044697456,0.0063853506,0.020019531,0.45166016,0.0,0.89160156
17/07/11 05:13:41:809,506,-0.7714844,0.03564453,0.56640625,-0.037247878,-0.04576168,0.0074495757,0.020019531,0.45117188,0.0,0.89208984
17/07/11 05:13:41:814,511,-0.7714844,0.03564453,0.56640625,-0.037247878,-0.04576168,0.0074495757,0.020019531,0.45117188,0.0,0.89208984
17/07/11 05:13:41:819,516,-0.7714844,0.03564453,0.56640625,-0.037247878,-0.04576168,0.0074495757,0.020019531,0.45117188,0.0,0.89208984
17/07/11 05:13:41:824,521,-0.7714844,0.03564453,0.56640625,-0.037247878,-0.04576168,0.0074495757,0.020019531,0.45117188,0.0,0.89208984
17/07/11 05:13:41:829,526,-0.7714844,0.03564453,0.56640625,-0.037247878,-0.04576168,0.0074495757,0.020019531,0.45117188,0.0,0.89208984
17/07/11 05:13:41:834,531,-0.7714844,0.03564453,0.56640625,-0.037247878,-0.04576168,0.0074495757,0.020019531,0.45117188,0.0,0.89208984
17/07/11 05:13:41:839,536,-0.7714844,0.03564453,0.56640625,-0.037247878,-0.04576168,0.0074495757,0.020019531,0.45117188,0.0,0.89208984
17/07/11 05:13:41:845,542,-0.7648926,0.035888672,0.5617676,-0.037247878,-0.046825904,0.0063853506,0.020507813,0.45117188,0.0,0.89208984
17/07/11 05:13:41:850,547,-0.7705078,0.036132813,0.56689453,-0.037247878,-0.04576168,0.0063853506,0.020507813,0.4506836,0.0,0.89208984
17/07/11 05:13:41:855,552,-0.7705078,0.036132813,0.56689453,-0.037247878,-0.04576168,0.0063853506,0.020507813,0.4506836,0.0,0.89208984
17/07/11 05:13:41:863,560,-0.7680664,0.036132813,0.5637207,-0.036183655,-0.04576168,0.0053211255,0.020996094,0.4506836,4.8828125E-4,0.89208984
17/07/11 05:13:41:868,565,-0.7680664,0.036132813,0.5637207,-0.036183655,-0.04576168,0.0053211255,0.020996094,0.4506836,4.8828125E-4,0.89208984
17/07/11 05:13:41:873,570,-0.7680664,0.036132813,0.5637207,-0.036183655,-0.04576168,0.0053211255,0.020996094,0.4506836,4.8828125E-4,0.89208984
17/07/11 05:13:41:878,575,-0.7680664,0.036132813,0.5637207,-0.036183655,-0.04576168,0.0053211255,0.020996094,0.4506836,4.8828125E-4,0.89208984
17/07/11 05:13:41:883,580,-0.7680664,0.036132813,0.5637207,-0.036183655,-0.04576168,0.0053211255,0.020996094,0.4506836,4.8828125E-4,0.89208984
17/07/11 05:13:41:888,585,-0.7680664,0.036132813,0.5637207,-0.036183655,-0.04576168,0.0053211255,0.020996094,0.4506836,4.8828125E-4,0.89208984
17/07/11 05:13:41:893,590,-0.7651367,0.036865234,0.5656738,-0.037247878,-0.04576168,0.0053211255,0.020996094,0.45117188,4.8828125E-4,0.89208984
17/07/11 05:13:41:900,597,-0.763916,0.033447266,0.56347656,-0.036183655,-0.044697456,0.0053211255,0.020996094,0.4506836,4.8828125E-4,0.89208984
17/07/11 05:13:41:905,602,-0.763916,0.033447266,0.56347656,-0.036183655,-0.044697456,0.0053211255,0.020996094,0.4506836,4.8828125E-4,0.89208984
17/07/11 05:13:41:910,607,-0.763916,0.033447266,0.56347656,-0.036183655,-0.044697456,0.0053211255,0.020996094,0.4506836,4.8828125E-4,0.89208984
17/07/11 05:13:41:915,612,-0.763916,0.033447266,0.56347656,-0.036183655,-0.044697456,0.0053211255,0.020996094,0.4506836,4.8828125E-4,0.89208984
17/07/11 05:13:41:922,619,-0.763916,0.033447266,0.56347656,-0.036183655,-0.044697456,0.0053211255,0.020996094,0.4506836,4.8828125E-4,0.89208984
17/07/11 05:13:41:927,624,-0.763916,0.033447266,0.56347656,-0.036183655,-0.044697456,0.0053211255,0.020996094,0.4506836,4.8828125E-4,0.89208984
17/07/11 05:13:41:933,630,-0.76342773,0.03564453,0.5666504,-0.037247878,-0.04576168,0.0063853506,0.020507813,0.4506836,0.0,0.89208984
17/07/11 05:13:41:938,635,-0.7705078,0.036132813,0.5617676,-0.037247878,-0.044697456,0.008513801,0.020507813,0.4506836,4.8828125E-4,0.89208984
17/07/11 05:13:41:943,640,-0.7709961,0.035888672,0.56225586,-0.037247878,-0.044697456,0.0074495757,0.020507813,0.45117188,4.8828125E-4,0.89208984
17/07/11 05:13:41:949,646,-0.76171875,0.033691406,0.5654297,-0.037247878,-0.04576168,0.0063853506,0.020507813,0.45117188,4.8828125E-4,0.89208984
17/07/11 05:13:41:954,651,-0.76171875,0.033691406,0.5654297,-0.037247878,-0.04576168,0.0063853506,0.020507813,0.45166016,0.0,0.89160156
17/07/11 05:13:41:959,656,-0.76416016,0.03515625,0.56030273,-0.037247878,-0.046825904,0.0074495757,0.020507813,0.45117188,0.0,0.89208984
17/07/11 05:13:41:964,661,-0.76416016,0.03515625,0.56030273,-0.037247878,-0.046825904,0.0074495757,0.020507813,0.45117188,0.0,0.89208984
17/07/11 05:13:41:969,666,-0.76904297,0.03564453,0.56274414,-0.036183655,-0.046825904,0.0074495757,0.020507813,0.45166016,0.0,0.89160156
17/07/11 05:13:41:974,671,-0.76904297,0.03564453,0.56274414,-0.036183655,-0.046825904,0.0074495757,0.020507813,0.45166016,0.0,0.89160156
17/07/11 05:13:41:979,676,-0.77319336,0.036621094,0.56103516,-0.036183655,-0.04576168,0.0063853506,0.020507813,0.45166016,0.0,0.89160156
17/07/11 05:13:41:985,682,-0.77319336,0.036621094,0.56103516,-0.036183655,-0.04576168,0.0063853506,0.020507813,0.45214844,0.0,0.89160156
17/07/11 05:13:41:990,687,-0.7687988,0.037353516,0.56396484,-0.036183655,-0.04576168,0.0063853506,0.020507813,0.45263672,0.0,0.8911133
17/07/11 05:13:41:995,692,-0.7687988,0.037353516,0.56396484,-0.036183655,-0.04576168,0.0063853506,0.020507813,0.45263672,0.0,0.8911133
17/07/11 05:13:42:000,697,-0.7651367,0.032714844,0.5673828,-0.03937633,-0.046825904,0.0053211255,0.020996094,0.45214844,4.8828125E-4,0.89160156
17/07/11 05:13:42:005,702,-0.7651367,0.032714844,0.5673828,-0.03937633,-0.046825904,0.0053211255,0.020996094,0.45214844,4.8828125E-4,0.89160156
17/07/11 05:13:42:011,708,-0.76904297,0.034423828,0.5632324,-0.037247878,-0.044697456,0.0053211255,0.020507813,0.45166016,0.0,0.89160156
17/07/11 05:13:42:016,713,-0.76904297,0.034423828,0.5632324,-0.037247878,-0.044697456,0.0053211255,0.020507813,0.45166016,0.0,0.89160156
17/07/11 05:13:42:021,718,-0.76904297,0.034423828,0.5632324,-0.037247878,-0.044697456,0.0053211255,0.020507813,0.45166016,0.0,0.89160156
17/07/11 05:13:42:026,723,-0.76904297,0.034423828,0.5632324,-0.037247878,-0.044697456,0.0053211255,0.020507813,0.45166016,0.0,0.89160156
17/07/11 05:13:42:031,728,-0.76904297,0.034423828,0.5632324,-0.037247878,-0.044697456,0.0053211255,0.020507813,0.45166016,0.0,0.89160156
17/07/11 05:13:42:036,733,-0.76904297,0.034423828,0.5632324,-0.037247878,-0.044697456,0.0053211255,0.020507813,0.45166016,0.0,0.89160156
17/07/11 05:13:42:041,738,-0.76904297,0.034423828,0.5632324,-0.037247878,-0.044697456,0.0053211255,0.020507813,0.45166016,0.0,0.89160156
17/07/11 05:13:42:046,743,-0.7697754,0.03540039,0.56396484,-0.036183655,-0.04576168,0.0074495757,0.01953125,0.45263672,0.0,0.8911133
17/07/11 05:13:42:051,748,-0.76342773,0.031982422,0.56591797,-0.037247878,-0.044697456,0.0063853506,0.020019531,0.45214844,0.0,0.89160156
17/07/11 05:13:42:056,753,-0.76342773,0.031982422,0.56591797,-0.037247878,-0.044697456,0.0063853506,0.020019531,0.45214844,0.0,0.89160156
17/07/11 05:13:42:061,758,-0.76953125,0.033935547,0.5617676,-0.037247878,-0.04576168,0.0074495757,0.020019531,0.45166016,0.0,0.89160156
17/07/11 05:13:42:066,763,-0.76953125,0.033935547,0.5617676,-0.037247878,-0.04576168,0.0074495757,0.020019531,0.45166016,0.0,0.89160156
17/07/11 05:13:42:071,768,-0.7697754,0.033203125,0.56469727,-0.037247878,-0.04576168,0.0063853506,0.020019531,0.45214844,0.0,0.89160156
17/07/11 05:13:42:076,773,-0.7697754,0.033203125,0.56469727,-0.037247878,-0.04576168,0.0063853506,0.020019531,0.45214844,0.0,0.89160156
17/07/11 05:13:42:081,778,-0.76660156,0.03491211,0.5600586,-0.037247878,-0.04576168,0.0074495757,0.01953125,0.45166016,0.0,0.89160156
17/07/11 05:13:42:086,783,-0.76660156,0.03491211,0.5600586,-0.037247878,-0.04576168,0.0074495757,0.01953125,0.45166016,0.0,0.89160156
17/07/11 05:13:42:091,788,-0.7687988,0.03491211,0.56469727,-0.036183655,-0.04576168,0.0063853506,0.020019531,0.45214844,0.0,0.89160156
17/07/11 05:13:42:097,794,-0.7687988,0.03491211,0.56469727,-0.036183655,-0.04576168,0.0063853506,0.020019531,0.45214844,0.0,0.89160156
17/07/11 05:13:42:103,800,-0.7697754,0.033935547,0.5666504,-0.036183655,-0.04576168,0.0063853506,0.020019531,0.45117188,0.0,0.89208984
17/07/11 05:13:42:109,806,-0.7661133,0.037353516,0.564209,-0.036183655,-0.044697456,0.0063853506,0.01953125,0.4506836,0.0,0.89208984
17/07/11 05:13:42:114,811,-0.7661133,0.037353516,0.564209,-0.036183655,-0.044697456,0.0063853506,0.01953125,0.4506836,0.0,0.89208984
17/07/11 05:13:42:120,817,-0.7661133,0.032714844,0.56225586,-0.036183655,-0.04576168,0.0053211255,0.020507813,0.4506836,0.0,0.89208984
17/07/11 05:13:42:125,822,-0.7661133,0.032714844,0.56225586,-0.036183655,-0.04576168,0.0053211255,0.020507813,0.4506836,0.0,0.89208984
17/07/11 05:13:42:130,827,-0.77197266,0.032958984,0.56152344,-0.036183655,-0.04576168,0.0053211255,0.020019531,0.45117188,0.0,0.89208984
17/07/11 05:13:42:135,832,-0.77197266,0.032958984,0.56152344,-0.036183655,-0.04576168,0.0053211255,0.020019531,0.45117188,0.0,0.89208984
17/07/11 05:13:42:140,837,-0.7685547,0.036132813,0.56591797,-0.037247878,-0.044697456,0.0053211255,0.01953125,0.45166016,0.0,0.89160156
17/07/11 05:13:42:145,842,-0.7685547,0.036132813,0.56591797,-0.037247878,-0.044697456,0.0053211255,0.01953125,0.45166016,0.0,0.89160156
17/07/11 05:13:42:150,847,-0.76586914,0.033447266,0.5644531,-0.038312104,-0.04576168,0.0063853506,0.020019531,0.45117188,0.0,0.89208984
17/07/11 05:13:42:155,852,-0.76586914,0.033447266,0.5644531,-0.038312104,-0.04576168,0.0063853506,0.020019531,0.45117188,0.0,0.89208984
17/07/11 05:13:42:161,858,-0.77001953,0.037841797,0.5644531,-0.037247878,-0.04576168,0.0074495757,0.01953125,0.4506836,0.0,0.89208984
17/07/11 05:13:42:166,863,-0.77001953,0.037841797,0.5644531,-0.037247878,-0.04576168,0.0074495757,0.01953125,0.4506836,0.0,0.89208984
17/07/11 05:13:42:171,868,-0.767334,0.036132813,0.56396484,-0.036183655,-0.04576168,0.0053211255,0.020507813,0.45117188,0.0,0.89208984
17/07/11 05:13:42:176,873,-0.767334,0.036132813,0.56396484,-0.036183655,-0.04576168,0.0053211255,0.020507813,0.45117188,0.0,0.89208984
17/07/11 05:13:42:181,878,-0.7692871,0.03540039,0.55859375,-0.036183655,-0.04576168,0.0063853506,0.020996094,0.45117188,4.8828125E-4,0.89208984
17/07/11 05:13:42:186,883,-0.7692871,0.03540039,0.55859375,-0.036183655,-0.04576168,0.0063853506,0.020996094,0.45117188,4.8828125E-4,0.89208984
17/07/11 05:13:42:191,888,-0.76586914,0.035888672,0.5595703,-0.036183655,-0.04576168,0.0063853506,0.020996094,0.45166016,4.8828125E-4,0.89160156
17/07/11 05:13:42:196,893,-0.76586914,0.035888672,0.5595703,-0.036183655,-0.04576168,0.0063853506,0.020996094,0.45166016,4.8828125E-4,0.89160156
17/07/11 05:13:42:201,898,-0.7680664,0.033935547,0.5656738,-0.037247878,-0.04576168,0.008513801,0.020996094,0.45214844,0.0,0.89160156
17/07/11 05:13:42:206,903,-0.7680664,0.033935547,0.5656738,-0.037247878,-0.04576168,0.008513801,0.020996094,0.45214844,0.0,0.89160156
17/07/11 05:13:42:212,909,-0.7685547,0.033447266,0.5673828,-0.037247878,-0.04576168,0.0074495757,0.020507813,0.45166016,0.0,0.89160156
17/07/11 05:13:42:218,915,-0.7663574,0.03491211,0.56591797,-0.038312104,-0.044697456,0.0074495757,0.020507813,0.45166016,0.0,0.89208984
17/07/11 05:13:42:223,920,-0.7663574,0.03491211,0.56591797,-0.038312104,-0.044697456,0.0074495757,0.020019531,0.45117188,0.0,0.89208984
17/07/11 05:13:42:228,925,-0.76782227,0.037597656,0.5600586,-0.037247878,-0.04576168,0.0063853506,0.020019531,0.4506836,0.0,0.89208984
17/07/11 05:13:42:233,930,-0.76782227,0.037597656,0.5600586,-0.037247878,-0.04576168,0.0063853506,0.020019531,0.4506836,0.0,0.89208984
17/07/11 05:13:42:238,935,-0.76782227,0.037597656,0.5600586,-0.037247878,-0.04576168,0.0063853506,0.020019531,0.4506836,0.0,0.89208984
17/07/11 05:13:42:244,941,-0.76782227,0.037597656,0.5600586,-0.037247878,-0.04576168,0.0063853506,0.020019531,0.4506836,0.0,0.89208984
17/07/11 05:13:42:249,946,-0.76782227,0.037597656,0.5600586,-0.037247878,-0.04576168,0.0063853506,0.020019531,0.4506836,0.0,0.89208984
17/07/11 05:13:42:254,951,-0.76782227,0.037597656,0.5600586,-0.037247878,-0.04576168,0.0063853506,0.020019531,0.4506836,0.0,0.89208984
17/07/11 05:13:42:259,956,-0.76831055,0.03466797,0.56152344,-0.038312104,-0.044697456,0.0053211255,0.020507813,0.45117188,0.0,0.89208984
17/07/11 05:13:42:264,961,-0.76831055,0.03466797,0.56152344,-0.038312104,-0.044697456,0.0053211255,0.020507813,0.45117188,0.0,0.89208984
17/07/11 05:13:42:270,967,-0.7651367,0.034423828,0.56030273,-0.037247878,-0.04576168,0.0053211255,0.020019531,0.45166016,0.0,0.89160156
17/07/11 05:13:42:276,973,-0.7651367,0.034423828,0.56030273,-0.037247878,-0.04576168,0.0053211255,0.020019531,0.45166016,0.0,0.89160156
17/07/11 05:13:42:282,979,-0.77001953,0.03540039,0.56103516,-0.038312104,-0.04576168,0.0053211255,0.020019531,0.45214844,0.0,0.89160156
17/07/11 05:13:42:287,984,-0.77001953,0.03540039,0.56103516,-0.038312104,-0.04576168,0.0053211255,0.020019531,0.45214844,0.0,0.89160156
17/07/11 05:13:42:292,989,-0.7692871,0.03466797,0.5632324,-0.037247878,-0.046825904,0.0063853506,0.020019531,0.45263672,0.0,0.8911133
17/07/11 05:13:42:297,994,-0.7692871,0.03466797,0.5632324,-0.037247878,-0.046825904,0.0063853506,0.020019531,0.45263672,0.0,0.8911133
17/07/11 05:13:42:302,999,-0.7692871,0.03466797,0.5632324,-0.037247878,-0.046825904,0.0063853506,0.020019531,0.45263672,0.0,0.8911133
17/07/11 05:13:42:307,1004,-0.7692871,0.03466797,0.5632324,-0.037247878,-0.046825904,0.0063853506,0.020019531,0.45263672,0.0,0.8911133
17/07/11 05:13:42:312,1009,-0.7692871,0.03466797,0.5632324,-0.037247878,-0.046825904,0.0063853506,0.020019531,0.45263672,0.0,0.8911133
17/07/11 05:13:42:317,1014,-0.7692871,0.03466797,0.5632324,-0.037247878,-0.046825904,0.0063853506,0.020019531,0.45263672,0.0,0.8911133
17/07/11 05:13:42:322,1019,-0.7692871,0.03466797,0.5632324,-0.037247878,-0.046825904,0.0063853506,0.020019531,0.45263672,0.0,0.8911133
17/07/11 05:13:42:327,1024,-0.7692871,0.03466797,0.5632324,-0.037247878,-0.046825904,0.0063853506,0.020019531,0.45263672,0.0,0.8911133
17/07/11 05:13:42:332,1029,-0.7692871,0.03466797,0.5632324,-0.037247878,-0.046825904,0.0063853506,0.020019531,0.45263672,0.0,0.8911133
17/07/11 05:13:42:337,1034,-0.77124023,0.03466797,0.5686035,-0.037247878,-0.04576168,0.0074495757,0.020019531,0.45263672,0.0,0.8911133
17/07/11 05:13:42:342,1039,-0.77124023,0.033935547,0.56225586,-0.037247878,-0.04576168,0.008513801,0.020507813,0.45166016,0.0,0.89160156
17/07/11 05:13:42:347,1044,-0.76782227,0.033447266,0.5600586,-0.038312104,-0.046825904,0.0074495757,0.020507813,0.45166016,0.0,0.89160156
17/07/11 05:13:42:354,1051,-0.76782227,0.033447266,0.5600586,-0.038312104,-0.046825904,0.0074495757,0.020019531,0.45214844,0.0,0.89160156
17/07/11 05:13:42:360,1057,-0.76464844,0.035888672,0.564209,-0.036183655,-0.046825904,0.0053211255,0.01953125,0.45263672,0.0,0.8911133
17/07/11 05:13:42:366,1063,-0.76464844,0.035888672,0.564209,-0.036183655,-0.046825904,0.0053211255,0.01953125,0.45263672,0.0,0.8911133
17/07/11 05:13:42:371,1068,-0.76464844,0.035888672,0.564209,-0.036183655,-0.046825904,0.0053211255,0.01953125,0.45263672,0.0,0.8911133
17/07/11 05:13:42:376,1073,-0.76464844,0.035888672,0.564209,-0.036183655,-0.046825904,0.0053211255,0.01953125,0.45263672,0.0,0.8911133
17/07/11 05:13:42:381,1078,-0.76464844,0.035888672,0.564209,-0.036183655,-0.046825904,0.0053211255,0.01953125,0.45263672,0.0,0.8911133
17/07/11 05:13:42:386,1083,-0.76464844,0.035888672,0.564209,-0.036183655,-0.046825904,0.0053211255,0.01953125,0.45263672,0.0,0.8911133
17/07/11 05:13:42:391,1088,-0.765625,0.03540039,0.56030273,-0.038312104,-0.046825904,0.0074495757,0.01953125,0.45263672,0.0,0.8911133
17/07/11 05:13:42:396,1093,-0.76660156,0.035888672,0.56274414,-0.037247878,-0.044697456,0.0053211255,0.020019531,0.45263672,0.0,0.8911133
17/07/11 05:13:42:401,1098,-0.76660156,0.034179688,0.56689453,-0.037247878,-0.044697456,0.0074495757,0.020507813,0.45214844,0.0,0.89160156
17/07/11 05:13:42:406,1103,-0.76660156,0.034179688,0.56689453,-0.037247878,-0.044697456,0.0074495757,0.020507813,0.45214844,0.0,0.89160156
17/07/11 05:13:42:411,1108,-0.76416016,0.035888672,0.560791,-0.038312104,-0.04576168,0.0063853506,0.020507813,0.45117188,0.0,0.89208984
17/07/11 05:13:42:416,1113,-0.76416016,0.035888672,0.560791,-0.038312104,-0.04576168,0.0063853506,0.020507813,0.45117188,0.0,0.89208984
17/07/11 05:13:42:421,1118,-0.76831055,0.036132813,0.56152344,-0.037247878,-0.044697456,0.0074495757,0.020996094,0.45117188,4.8828125E-4,0.89208984
17/07/11 05:13:42:426,1123,-0.76831055,0.036132813,0.56152344,-0.037247878,-0.044697456,0.0074495757,0.020996094,0.45117188,4.8828125E-4,0.89208984
17/07/11 05:13:42:431,1128,-0.77001953,0.037353516,0.55981445,-0.037247878,-0.04576168,0.0063853506,0.020996094,0.45166016,4.8828125E-4,0.89160156
17/07/11 05:13:42:436,1133,-0.77001953,0.037353516,0.55981445,-0.037247878,-0.04576168,0.0063853506,0.020996094,0.45166016,4.8828125E-4,0.89160156
17/07/11 05:13:42:441,1138,-0.7680664,0.038085938,0.56347656,-0.03937633,-0.04576168,0.0063853506,0.020996094,0.45263672,4.8828125E-4,0.8911133
17/07/11 05:13:42:446,1143,-0.7680664,0.038085938,0.56347656,-0.03937633,-0.04576168,0.0063853506,0.020996094,0.45263672,4.8828125E-4,0.8911133
17/07/11 05:13:42:451,1148,-0.7680664,0.038085938,0.56347656,-0.03937633,-0.04576168,0.0063853506,0.020996094,0.45263672,4.8828125E-4,0.8911133
17/07/11 05:13:42:456,1153,-0.7680664,0.038085938,0.56347656,-0.03937633,-0.04576168,0.0063853506,0.020996094,0.45263672,4.8828125E-4,0.8911133
17/07/11 05:13:42:462,1159,-0.7680664,0.038085938,0.56347656,-0.03937633,-0.04576168,0.0063853506,0.020996094,0.45263672,4.8828125E-4,0.8911133
17/07/11 05:13:42:467,1164,-0.7680664,0.038085938,0.56347656,-0.03937633,-0.04576168,0.0063853506,0.020996094,0.45263672,4.8828125E-4,0.8911133
17/07/11 05:13:42:472,1169,-0.76660156,0.036376953,0.5576172,-0.038312104,-0.04576168,0.008513801,0.021484375,0.45166016,4.8828125E-4,0.89160156
17/07/11 05:13:42:477,1174,-0.77197266,0.033203125,0.5620117,-0.037247878,-0.04576168,0.008513801,0.020996094,0.45166016,4.8828125E-4,0.89160156
17/07/11 05:13:42:483,1180,-0.77075195,0.03515625,0.56103516,-0.037247878,-0.046825904,0.0063853506,0.020507813,0.45214844,0.0,0.89160156
17/07/11 05:13:42:488,1185,-0.7651367,0.03491211,0.5637207,-0.037247878,-0.04576168,0.0063853506,0.020507813,0.45263672,0.0,0.8911133
17/07/11 05:13:42:493,1190,-0.7651367,0.03491211,0.5637207,-0.037247878,-0.04576168,0.0063853506,0.020507813,0.45263672,0.0,0.8911133
17/07/11 05:13:42:498,1195,-0.7651367,0.03491211,0.5637207,-0.037247878,-0.04576168,0.0063853506,0.020507813,0.45263672,0.0,0.8911133
17/07/11 05:13:42:503,1200,-0.7651367,0.03491211,0.5637207,-0.037247878,-0.04576168,0.0063853506,0.020507813,0.45263672,0.0,0.8911133
17/07/11 05:13:42:508,1205,-0.7651367,0.03491211,0.5637207,-0.037247878,-0.04576168,0.0063853506,0.020507813,0.45263672,0.0,0.8911133
17/07/11 05:13:42:513,1210,-0.7651367,0.03491211,0.5637207,-0.037247878,-0.04576168,0.0063853506,0.020507813,0.45263672,0.0,0.8911133
17/07/11 05:13:42:518,1215,-0.7651367,0.03491211,0.5637207,-0.037247878,-0.04576168,0.0063853506,0.020507813,0.45263672,0.0,0.8911133
17/07/11 05:13:42:523,1220,-0.7687988,0.031982422,0.56347656,-0.038312104,-0.04576168,0.0063853506,0.020507813,0.45214844,0.0,0.89160156
17/07/11 05:13:42:528,1225,-0.76782227,0.036376953,0.5637207,-0.037247878,-0.04576168,0.0063853506,0.01953125,0.45166016,0.0,0.89160156
17/07/11 05:13:42:533,1230,-0.7717285,0.032714844,0.5612793,-0.037247878,-0.044697456,0.0074495757,0.020019531,0.45117188,0.0,0.89208984
17/07/11 05:13:42:538,1235,-0.7717285,0.038085938,0.5620117,-0.037247878,-0.044697456,0.0074495757,0.020019531,0.45117188,0.0,0.89208984
17/07/11 05:13:42:543,1240,-0.7702637,0.038085938,0.5620117,-0.036183655,-0.044697456,0.0074495757,0.020019531,0.45166016,0.0,0.89160156
17/07/11 05:13:42:548,1245,-0.77001953,0.03466797,0.56591797,-0.037247878,-0.04576168,0.0053211255,0.020507813,0.45214844,0.0,0.89160156
17/07/11 05:13:42:553,1250,-0.77001953,0.03466797,0.56591797,-0.037247878,-0.04576168,0.0053211255,0.020507813,0.45214844,0.0,0.89160156
17/07/11 05:13:42:558,1255,-0.77001953,0.03466797,0.56591797,-0.037247878,-0.04576168,0.0053211255,0.020507813,0.45214844,0.0,0.89160156
17/07/11 05:13:42:563,1260,-0.767334,0.034179688,0.5649414,-0.038312104,-0.04576168,0.0063853506,0.020019531,0.45166016,0.0,0.89160156
17/07/11 05:13:42:568,1265,-0.767334,0.034179688,0.5649414,-0.038312104,-0.04576168,0.0063853506,0.020019531,0.45166016,0.0,0.89160156
17/07/11 05:13:42:573,1270,-0.7668457,0.03540039,0.5620117,-0.037247878,-0.044697456,0.0074495757,0.020019531,0.45117188,0.0,0.89208984
17/07/11 05:13:42:578,1275,-0.76342773,0.032958984,0.564209,-0.038312104,-0.046825904,0.0063853506,0.020507813,0.45166016,0.0,0.89160156
17/07/11 05:13:42:583,1280,-0.76342773,0.032958984,0.564209,-0.038312104,-0.046825904,0.0063853506,0.020507813,0.45166016,0.0,0.89160156
17/07/11 05:13:42:588,1285,-0.76342773,0.032958984,0.564209,-0.038312104,-0.046825904,0.0063853506,0.020507813,0.45166016,0.0,0.89160156
17/07/11 05:13:42:594,1291,-0.77075195,0.037109375,0.56640625,-0.037247878,-0.046825904,0.0074495757,0.020019531,0.45117188,0.0,0.89208984
17/07/11 05:13:42:599,1296,-0.7697754,0.036621094,0.560791,-0.037247878,-0.04576168,0.0063853506,0.020507813,0.45117188,4.8828125E-4,0.89208984
17/07/11 05:13:42:604,1301,-0.7697754,0.036621094,0.560791,-0.037247878,-0.04576168,0.0063853506,0.020507813,0.45117188,4.8828125E-4,0.89208984
17/07/11 05:13:42:609,1306,-0.7697754,0.036621094,0.560791,-0.037247878,-0.04576168,0.0063853506,0.020507813,0.45117188,4.8828125E-4,0.89208984
17/07/11 05:13:42:614,1311,-0.7697754,0.036621094,0.560791,-0.037247878,-0.04576168,0.0063853506,0.020507813,0.45117188,4.8828125E-4,0.89208984
17/07/11 05:13:42:619,1316,-0.7697754,0.036621094,0.560791,-0.037247878,-0.04576168,0.0063853506,0.020507813,0.45117188,4.8828125E-4,0.89208984
17/07/11 05:13:42:624,1321,-0.7697754,0.036621094,0.560791,-0.037247878,-0.04576168,0.0063853506,0.020507813,0.45117188,4.8828125E-4,0.89208984
17/07/11 05:13:42:629,1326,-0.7697754,0.036621094,0.560791,-0.037247878,-0.04576168,0.0063853506,0.020507813,0.45117188,4.8828125E-4,0.89208984
17/07/11 05:13:42:638,1335,-0.76586914,0.034423828,0.56225586,-0.037247878,-0.044697456,0.0063853506,0.020019531,0.45117188,0.0,0.89160156
17/07/11 05:13:42:643,1340,-0.76953125,0.033691406,0.5617676,-0.037247878,-0.04576168,0.0063853506,0.020019531,0.45117188,0.0,0.89208984
17/07/11 05:13:42:649,1346,-0.7697754,0.037109375,0.564209,-0.036183655,-0.04576168,0.0074495757,0.020019531,0.45166016,0.0,0.89160156
17/07/11 05:13:42:655,1352,-0.7697754,0.037109375,0.564209,-0.036183655,-0.04576168,0.0074495757,0.020019531,0.45166016,0.0,0.89160156
17/07/11 05:13:42:660,1357,-0.76782227,0.037109375,0.56591797,-0.037247878,-0.04576168,0.0063853506,0.020507813,0.45166016,0.0,0.89160156
17/07/11 05:13:42:665,1362,-0.76782227,0.037109375,0.56591797,-0.037247878,-0.04576168,0.0063853506,0.020507813,0.45166016,0.0,0.89160156
17/07/11 05:13:42:671,1368,-0.76782227,0.037109375,0.56591797,-0.037247878,-0.04576168,0.0063853506,0.020507813,0.45166016,0.0,0.89160156
17/07/11 05:13:42:676,1373,-0.76782227,0.037109375,0.56591797,-0.037247878,-0.04576168,0.0063853506,0.020507813,0.45166016,0.0,0.89160156
17/07/11 05:13:42:681,1378,-0.76782227,0.037109375,0.56591797,-0.037247878,-0.04576168,0.0063853506,0.020507813,0.45166016,0.0,0.89160156
17/07/11 05:13:42:686,1383,-0.76782227,0.037109375,0.56591797,-0.037247878,-0.04576168,0.0063853506,0.020507813,0.45166016,0.0,0.89160156
17/07/11 05:13:42:691,1388,-0.76782227,0.037109375,0.56591797,-0.037247878,-0.04576168,0.0063853506,0.020507813,0.45166016,0.0,0.89160156
17/07/11 05:13:42:696,1393,-0.77368164,0.03125,0.56225586,-0.037247878,-0.04576168,0.0074495757,0.020019531,0.4506836,0.0,0.89208984
17/07/11 05:13:42:701,1398,-0.77368164,0.03125,0.56225586,-0.037247878,-0.04576168,0.0074495757,0.020019531,0.4506836,0.0,0.89208984
17/07/11 05:13:42:706,1403,-0.76831055,0.03491211,0.5632324,-0.036183655,-0.04576168,0.0063853506,0.01953125,0.45117188,0.0,0.89208984
17/07/11 05:13:42:711,1408,-0.763916,0.03491211,0.56347656,-0.036183655,-0.04576168,0.0053211255,0.020507813,0.45166016,0.0,0.89160156
17/07/11 05:13:42:717,1414,-0.763916,0.03491211,0.56347656,-0.036183655,-0.04576168,0.0053211255,0.020507813,0.45166016,0.0,0.89160156
17/07/11 05:13:42:722,1419,-0.763916,0.03491211,0.56347656,-0.036183655,-0.04576168,0.0053211255,0.020507813,0.45166016,0.0,0.89160156
17/07/11 05:13:42:727,1424,-0.763916,0.03491211,0.56347656,-0.036183655,-0.04576168,0.0053211255,0.020507813,0.45166016,0.0,0.89160156
17/07/11 05:13:42:732,1429,-0.763916,0.03491211,0.56347656,-0.036183655,-0.04576168,0.0053211255,0.020507813,0.45166016,0.0,0.89160156
17/07/11 05:13:42:737,1434,-0.763916,0.03491211,0.56347656,-0.036183655,-0.04576168,0.0053211255,0.020507813,0.45166016,0.0,0.89160156
17/07/11 05:13:42:742,1439,-0.7702637,0.033935547,0.56347656,-0.036183655,-0.044697456,0.008513801,0.020019531,0.45117188,0.0,0.89208984
17/07/11 05:13:42:747,1444,-0.7702637,0.033935547,0.56347656,-0.036183655,-0.044697456,0.008513801,0.020019531,0.45117188,0.0,0.89208984
17/07/11 05:13:42:752,1449,-0.76831055,0.03564453,0.5661621,-0.037247878,-0.044697456,0.0063853506,0.020507813,0.45166016,0.0,0.89160156
17/07/11 05:13:42:757,1454,-0.7675781,0.037353516,0.5632324,-0.037247878,-0.04576168,0.0053211255,0.020507813,0.45166016,0.0,0.89160156
17/07/11 05:13:42:763,1460,-0.7675781,0.037353516,0.5632324,-0.037247878,-0.04576168,0.0053211255,0.020507813,0.45117188,0.0,0.89208984
17/07/11 05:13:42:769,1466,-0.7675781,0.037353516,0.5632324,-0.037247878,-0.04576168,0.0053211255,0.020507813,0.45117188,0.0,0.89208984
17/07/11 05:13:42:774,1471,-0.7675781,0.037353516,0.5632324,-0.037247878,-0.04576168,0.0053211255,0.020507813,0.45117188,0.0,0.89208984
17/07/11 05:13:42:779,1476,-0.7675781,0.037353516,0.5632324,-0.037247878,-0.04576168,0.0053211255,0.020507813,0.45117188,0.0,0.89208984
17/07/11 05:13:42:784,1481,-0.7675781,0.037353516,0.5632324,-0.037247878,-0.04576168,0.0053211255,0.020507813,0.45117188,0.0,0.89208984
17/07/11 05:13:42:789,1486,-0.7675781,0.037353516,0.5632324,-0.037247878,-0.04576168,0.0053211255,0.020507813,0.45117188,0.0,0.89208984
17/07/11 05:13:42:794,1491,-0.767334,0.033447266,0.5583496,-0.037247878,-0.04576168,0.0063853506,0.020996094,0.45117188,4.8828125E-4,0.89208984
17/07/11 05:13:42:799,1496,-0.77246094,0.03173828,0.5656738,-0.038312104,-0.04576168,0.0063853506,0.020019531,0.45214844,0.0,0.89160156
17/07/11 05:13:42:804,1501,-0.7624512,0.033691406,0.56152344,-0.038312104,-0.04576168,0.0042569004,0.01953125,0.45214844,0.0,0.89160156
17/07/11 05:13:42:809,1506,-0.76660156,0.033935547,0.56469727,-0.038312104,-0.04576168,0.0063853506,0.01953125,0.45214844,0.0,0.89160156
17/07/11 05:13:42:814,1511,-0.76660156,0.033935547,0.56469727,-0.038312104,-0.04576168,0.0063853506,0.01953125,0.45117188,0.0,0.89208984
17/07/11 05:13:42:820,1517,-0.77001953,0.037109375,0.5654297,-0.037247878,-0.044697456,0.0063853506,0.01953125,0.4506836,0.0,0.89208984
17/07/11 05:13:42:825,1522,-0.77001953,0.037109375,0.5654297,-0.037247878,-0.044697456,0.0063853506,0.01953125,0.4506836,0.0,0.89208984
17/07/11 05:13:42:830,1527,-0.76904297,0.03515625,0.5617676,-0.038312104,-0.044697456,0.0063853506,0.020507813,0.45117188,0.0,0.89208984
17/07/11 05:13:42:835,1532,-0.76904297,0.03515625,0.5617676,-0.038312104,-0.044697456,0.0063853506,0.020507813,0.45117188,0.0,0.89208984
17/07/11 05:13:42:841,1538,-0.77001953,0.037841797,0.5605469,-0.037247878,-0.04576168,0.0063853506,0.020507813,0.45166016,0.0,0.89160156
17/07/11 05:13:42:846,1543,-0.77001953,0.037841797,0.5605469,-0.037247878,-0.04576168,0.0063853506,0.020507813,0.45166016,0.0,0.89160156
17/07/11 05:13:42:851,1548,-0.765625,0.03540039,0.5656738,-0.037247878,-0.04576168,0.0063853506,0.020507813,0.45214844,4.8828125E-4,0.89160156
17/07/11 05:13:42:856,1553,-0.765625,0.03540039,0.5656738,-0.037247878,-0.04576168,0.0063853506,0.020507813,0.45214844,4.8828125E-4,0.89160156
17/07/11 05:13:42:862,1559,-0.76782227,0.03564453,0.5617676,-0.037247878,-0.04576168,0.0074495757,0.020507813,0.45166016,0.0,0.89160156
17/07/11 05:13:42:867,1564,-0.7668457,0.033935547,0.5612793,-0.037247878,-0.044697456,0.0053211255,0.020507813,0.45214844,0.0,0.89160156
17/07/11 05:13:42:872,1569,-0.7668457,0.033935547,0.5612793,-0.037247878,-0.044697456,0.0053211255,0.020507813,0.45214844,0.0,0.89160156
17/07/11 05:13:42:877,1574,-0.7668457,0.033935547,0.5612793,-0.037247878,-0.044697456,0.0053211255,0.020507813,0.45214844,0.0,0.89160156
17/07/11 05:13:42:882,1579,-0.7668457,0.033935547,0.5612793,-0.037247878,-0.044697456,0.0053211255,0.020507813,0.45214844,0.0,0.89160156
17/07/11 05:13:42:887,1584,-0.7668457,0.033935547,0.5612793,-0.037247878,-0.044697456,0.0053211255,0.020507813,0.45214844,0.0,0.89160156
17/07/11 05:13:42:892,1589,-0.7668457,0.033935547,0.5612793,-0.037247878,-0.044697456,0.0053211255,0.020507813,0.45214844,0.0,0.89160156
17/07/11 05:13:42:898,1595,-0.7668457,0.033935547,0.5612793,-0.037247878,-0.044697456,0.0053211255,0.020507813,0.45214844,0.0,0.89160156
17/07/11 05:13:42:903,1600,-0.76464844,0.03515625,0.56103516,-0.038312104,-0.046825904,0.0063853506,0.020019531,0.45117188,0.0,0.89208984
17/07/11 05:13:42:907,1604,-0.76904297,0.037841797,0.560791,-0.038312104,-0.044697456,0.0063853506,0.020507813,0.45166016,0.0,0.89160156
17/07/11 05:13:42:912,1609,-0.76904297,0.037841797,0.560791,-0.038312104,-0.044697456,0.0063853506,0.020507813,0.45166016,0.0,0.89160156
17/07/11 05:13:42:917,1614,-0.76904297,0.037841797,0.560791,-0.038312104,-0.044697456,0.0063853506,0.020507813,0.45166016,0.0,0.89160156
17/07/11 05:13:42:923,1620,-0.76904297,0.037841797,0.560791,-0.038312104,-0.044697456,0.0063853506,0.020507813,0.45166016,0.0,0.89160156
17/07/11 05:13:42:928,1625,-0.76904297,0.037841797,0.560791,-0.038312104,-0.044697456,0.0063853506,0.020507813,0.45166016,0.0,0.89160156
17/07/11 05:13:42:933,1630,-0.76904297,0.037841797,0.560791,-0.038312104,-0.044697456,0.0063853506,0.020507813,0.45166016,0.0,0.89160156
17/07/11 05:13:42:939,1636,-0.76904297,0.037841797,0.560791,-0.038312104,-0.044697456,0.0063853506,0.020507813,0.45166016,0.0,0.89160156
17/07/11 05:13:42:944,1641,-0.76586914,0.03491211,0.5617676,-0.037247878,-0.044697456,0.0063853506,0.020996094,0.45166016,4.8828125E-4,0.89160156
17/07/11 05:13:42:949,1646,-0.76904297,0.037353516,0.56469727,-0.037247878,-0.04576168,0.0063853506,0.020996094,0.45117188,4.8828125E-4,0.89208984
17/07/11 05:13:42:954,1651,-0.767334,0.03564453,0.5620117,-0.036183655,-0.04576168,0.0063853506,0.021484375,0.45117188,4.8828125E-4,0.89208984
17/07/11 05:13:42:960,1657,-0.7663574,0.03540039,0.5620117,-0.037247878,-0.044697456,0.0074495757,0.020996094,0.45166016,4.8828125E-4,0.89160156
17/07/11 05:13:42:965,1662,-0.7663574,0.03540039,0.5620117,-0.037247878,-0.044697456,0.0074495757,0.020996094,0.45166016,4.8828125E-4,0.89160156
17/07/11 05:13:42:971,1668,-0.76586914,0.037597656,0.5656738,-0.037247878,-0.04576168,0.0053211255,0.020019531,0.45117188,0.0,0.89208984
17/07/11 05:13:42:977,1674,-0.76586914,0.037597656,0.5656738,-0.037247878,-0.04576168,0.0053211255,0.020019531,0.45117188,0.0,0.89208984
17/07/11 05:13:42:981,1678,-0.7687988,0.03540039,0.560791,-0.037247878,-0.04576168,0.0053211255,0.020507813,0.4506836,0.0,0.89208984
17/07/11 05:13:42:986,1683,-0.7687988,0.03540039,0.560791,-0.037247878,-0.04576168,0.0053211255,0.020507813,0.4506836,0.0,0.89208984
17/07/11 05:13:42:992,1689,-0.7663574,0.03564453,0.5612793,-0.037247878,-0.04576168,0.0063853506,0.020507813,0.45166016,0.0,0.89160156
17/07/11 05:13:42:997,1694,-0.7663574,0.03564453,0.5612793,-0.037247878,-0.04576168,0.0063853506,0.020507813,0.45166016,0.0,0.89160156
17/07/11 05:13:43:002,1699,-0.76708984,0.034423828,0.5625,-0.037247878,-0.04576168,0.0074495757,0.020507813,0.45214844,0.0,0.89160156
17/07/11 05:13:43:007,1704,-0.76708984,0.034423828,0.5625,-0.037247878,-0.04576168,0.0074495757,0.020507813,0.45214844,0.0,0.89160156
17/07/11 05:13:43:013,1710,-0.7680664,0.037597656,0.560791,-0.038312104,-0.044697456,0.0074495757,0.020019531,0.45166016,0.0,0.89160156
17/07/11 05:13:43:019,1716,-0.765625,0.03466797,0.56469727,-0.037247878,-0.04576168,0.0053211255,0.020507813,0.45214844,4.8828125E-4,0.89160156
17/07/11 05:13:43:024,1721,-0.765625,0.03466797,0.56469727,-0.037247878,-0.04576168,0.0053211255,0.020507813,0.45214844,4.8828125E-4,0.89160156
17/07/11 05:13:43:029,1726,-0.76953125,0.036621094,0.56225586,-0.037247878,-0.044697456,0.0063853506,0.020507813,0.45117188,0.0,0.89208984
17/07/11 05:13:43:034,1731,-0.76953125,0.036621094,0.56225586,-0.037247878,-0.044697456,0.0063853506,0.020507813,0.45117188,0.0,0.89208984
17/07/11 05:13:43:039,1736,-0.7685547,0.036376953,0.56152344,-0.038312104,-0.04576168,0.0074495757,0.020996094,0.45166016,4.8828125E-4,0.89160156
17/07/11 05:13:43:044,1741,-0.7685547,0.036376953,0.56152344,-0.038312104,-0.04576168,0.0074495757,0.020996094,0.45166016,4.8828125E-4,0.89160156
17/07/11 05:13:43:049,1746,-0.7687988,0.035888672,0.564209,-0.037247878,-0.04576168,0.0074495757,0.020996094,0.45263672,4.8828125E-4,0.8911133
17/07/11 05:13:43:054,1751,-0.7687988,0.035888672,0.564209,-0.037247878,-0.04576168,0.0074495757,0.020996094,0.45263672,4.8828125E-4,0.8911133
17/07/11 05:13:43:061,1758,-0.77124023,0.03564453,0.564209,-0.037247878,-0.044697456,0.0074495757,0.020996094,0.45166016,4.8828125E-4,0.89160156
17/07/11 05:13:43:066,1763,-0.77124023,0.03564453,0.564209,-0.037247878,-0.044697456,0.0074495757,0.020996094,0.45166016,4.8828125E-4,0.89160156
17/07/11 05:13:43:071,1768,-0.77124023,0.03564453,0.564209,-0.037247878,-0.044697456,0.0074495757,0.020996094,0.45166016,4.8828125E-4,0.89160156
17/07/11 05:13:43:076,1773,-0.77124023,0.03564453,0.564209,-0.037247878,-0.044697456,0.0074495757,0.020996094,0.45166016,4.8828125E-4,0.89160156
17/07/11 05:13:43:081,1778,-0.77124023,0.03564453,0.564209,-0.037247878,-0.044697456,0.0074495757,0.020996094,0.45166016,4.8828125E-4,0.89160156
17/07/11 05:13:43:086,1783,-0.77124023,0.03564453,0.564209,-0.037247878,-0.044697456,0.0074495757,0.020996094,0.45166016,4.8828125E-4,0.89160156
17/07/11 05:13:43:091,1788,-0.76416016,0.032714844,0.56591797,-0.037247878,-0.044697456,0.0053211255,0.020019531,0.45214844,0.0,0.89160156
17/07/11 05:13:43:096,1793,-0.76416016,0.032714844,0.56591797,-0.037247878,-0.044697456,0.0053211255,0.020019531,0.45214844,0.0,0.89160156
17/07/11 05:13:43:101,1798,-0.76416016,0.032714844,0.56591797,-0.037247878,-0.044697456,0.0053211255,0.020019531,0.45214844,0.0,0.89160156
17/07/11 05:13:43:107,1804,-0.7692871,0.032714844,0.57055664,-0.038312104,-0.04576168,0.0063853506,0.020019531,0.45166016,0.0,0.89160156
17/07/11 05:13:43:112,1809,-0.7585449,0.03149414,0.5612793,-0.036183655,-0.04576168,0.0053211255,0.020019531,0.45117188,0.0,0.89208984
17/07/11 05:13:43:117,1814,-0.7585449,0.03149414,0.5612793,-0.036183655,-0.04576168,0.0053211255,0.020019531,0.45117188,0.0,0.89208984
17/07/11 05:13:43:122,1819,-0.763916,0.032958984,0.56103516,-0.038312104,-0.044697456,0.0074495757,0.01953125,0.4506836,0.0,0.89208984
17/07/11 05:13:43:128,1825,-0.763916,0.032958984,0.56103516,-0.038312104,-0.044697456,0.0074495757,0.01953125,0.4506836,0.0,0.89208984
17/07/11 05:13:43:134,1831,-0.763916,0.032958984,0.56103516,-0.038312104,-0.044697456,0.0074495757,0.01953125,0.4506836,0.0,0.89208984
17/07/11 05:13:43:139,1836,-0.763916,0.032958984,0.56103516,-0.038312104,-0.044697456,0.0074495757,0.01953125,0.4506836,0.0,0.89208984
17/07/11 05:13:43:144,1841,-0.763916,0.032958984,0.56103516,-0.038312104,-0.044697456,0.0074495757,0.01953125,0.4506836,0.0,0.89208984
17/07/11 05:13:43:149,1846,-0.763916,0.032958984,0.56103516,-0.038312104,-0.044697456,0.0074495757,0.01953125,0.4506836,0.0,0.89208984
17/07/11 05:13:43:154,1851,-0.7758789,0.035888672,0.564209,-0.036183655,-0.04576168,0.008513801,0.019042969,0.45117188,0.0,0.89208984
17/07/11 05:13:43:159,1856,-0.76464844,0.032470703,0.56225586,-0.037247878,-0.044697456,0.0063853506,0.020019531,0.45117188,0.0,0.89208984
17/07/11 05:13:43:164,1861,-0.76464844,0.032470703,0.56225586,-0.037247878,-0.044697456,0.0063853506,0.020019531,0.45117188,0.0,0.89208984
17/07/11 05:13:43:170,1867,-0.76464844,0.032470703,0.56225586,-0.037247878,-0.044697456,0.0063853506,0.020019531,0.45117188,0.0,0.89208984
17/07/11 05:13:43:175,1872,-0.76464844,0.032470703,0.56225586,-0.037247878,-0.044697456,0.0063853506,0.020019531,0.45117188,0.0,0.89208984
17/07/11 05:13:43:180,1877,-0.76464844,0.032470703,0.56225586,-0.037247878,-0.044697456,0.0063853506,0.020019531,0.45117188,0.0,0.89208984
17/07/11 05:13:43:185,1882,-0.76464844,0.032470703,0.56225586,-0.037247878,-0.044697456,0.0063853506,0.020019531,0.45117188,0.0,0.89208984
17/07/11 05:13:43:190,1887,-0.76464844,0.032470703,0.56225586,-0.037247878,-0.044697456,0.0063853506,0.020019531,0.45117188,0.0,0.89208984
17/07/11 05:13:43:195,1892,-0.76464844,0.03100586,0.564209,-0.036183655,-0.046825904,0.0074495757,0.01953125,0.45117188,0.0,0.89208984
17/07/11 05:13:43:200,1897,-0.763916,0.03881836,0.5632324,-0.036183655,-0.04576168,0.0063853506,0.020019531,0.45117188,0.0,0.89208984
17/07/11 05:13:43:205,1902,-0.763916,0.03881836,0.5632324,-0.036183655,-0.04576168,0.0063853506,0.020019531,0.45117188,0.0,0.89208984
17/07/11 05:13:43:210,1907,-0.76904297,0.036621094,0.5656738,-0.037247878,-0.04576168,0.0074495757,0.020507813,0.45117188,4.8828125E-4,0.89208984
17/07/11 05:13:43:215,1912,-0.76904297,0.036621094,0.5656738,-0.037247878,-0.04576168,0.0074495757,0.020507813,0.45117188,4.8828125E-4,0.89208984
17/07/11 05:13:43:220,1917,-0.76904297,0.036621094,0.5656738,-0.037247878,-0.04576168,0.0074495757,0.020507813,0.45117188,4.8828125E-4,0.89208984
17/07/11 05:13:43:225,1922,-0.76904297,0.036621094,0.5656738,-0.037247878,-0.04576168,0.0074495757,0.020507813,0.45117188,4.8828125E-4,0.89208984
17/07/11 05:13:43:230,1927,-0.76904297,0.036621094,0.5656738,-0.037247878,-0.04576168,0.0074495757,0.020507813,0.45117188,4.8828125E-4,0.89208984
17/07/11 05:13:43:235,1932,-0.76904297,0.036621094,0.5656738,-0.037247878,-0.04576168,0.0074495757,0.020507813,0.45117188,4.8828125E-4,0.89208984
17/07/11 05:13:43:240,1937,-0.76904297,0.036621094,0.5656738,-0.037247878,-0.04576168,0.0074495757,0.020507813,0.45117188,4.8828125E-4,0.89208984
17/07/11 05:13:43:245,1942,-0.7697754,0.032470703,0.5673828,-0.037247878,-0.04363323,0.008513801,0.021484375,0.4506836,4.8828125E-4,0.89208984
17/07/11 05:13:43:250,1947,-0.77246094,0.038085938,0.56347656,-0.037247878,-0.04576168,0.0074495757,0.020507813,0.4501953,4.8828125E-4,0.8925781
17/07/11 05:13:43:255,1952,-0.77246094,0.038085938,0.56347656,-0.037247878,-0.04576168,0.0074495757,0.020507813,0.4501953,4.8828125E-4,0.8925781
17/07/11 05:13:43:260,1957,-0.7717285,0.040527344,0.5605469,-0.036183655,-0.046825904,0.0053211255,0.020996094,0.4506836,4.8828125E-4,0.89208984
17/07/11 05:13:43:265,1962,-0.7717285,0.040527344,0.5605469,-0.036183655,-0.046825904,0.0053211255,0.020996094,0.4506836,4.8828125E-4,0.89208984
17/07/11 05:13:43:270,1967,-0.7675781,0.03515625,0.55859375,-0.038312104,-0.04576168,0.0063853506,0.021484375,0.45117188,4.8828125E-4,0.89208984
17/07/11 05:13:43:275,1972,-0.7675781,0.03515625,0.55859375,-0.038312104,-0.04576168,0.0063853506,0.021484375,0.45117188,4.8828125E-4,0.89208984
17/07/11 05:13:43:281,1978,-0.76904297,0.037109375,0.56030273,-0.036183655,-0.044697456,0.0074495757,0.020996094,0.45166016,4.8828125E-4,0.89160156
17/07/11 05:13:43:286,1983,-0.76904297,0.037109375,0.56030273,-0.036183655,-0.044697456,0.0074495757,0.020996094,0.45166016,4.8828125E-4,0.89160156
17/07/11 05:13:43:291,1988,-0.76586914,0.036132813,0.56689453,-0.037247878,-0.04576168,0.0063853506,0.020996094,0.45214844,4.8828125E-4,0.89160156
17/07/11 05:13:43:296,1993,-0.76586914,0.036132813,0.56689453,-0.037247878,-0.04576168,0.0063853506,0.020996094,0.45214844,4.8828125E-4,0.89160156
17/07/11 05:13:43:301,1998,-0.76586914,0.036132813,0.56689453,-0.037247878,-0.04576168,0.0063853506,0.020996094,0.45214844,4.8828125E-4,0.89160156
17/07/11 05:13:43:307,2004,-0.76586914,0.036132813,0.56689453,-0.037247878,-0.04576168,0.0063853506,0.020996094,0.45214844,4.8828125E-4,0.89160156
17/07/11 05:13:43:312,2009,-0.76586914,0.036132813,0.56689453,-0.037247878,-0.04576168,0.0063853506,0.020996094,0.45214844,4.8828125E-4,0.89160156
17/07/11 05:13:43:317,2014,-0.76586914,0.036132813,0.56689453,-0.037247878,-0.04576168,0.0063853506,0.020996094,0.45214844,4.8828125E-4,0.89160156
17/07/11 05:13:43:322,2019,-0.76342773,0.036376953,0.5661621,-0.037247878,-0.044697456,0.0063853506,0.020996094,0.45166016,4.8828125E-4,0.89160156
17/07/11 05:13:43:327,2024,-0.77075195,0.036865234,0.5666504,-0.036183655,-0.044697456,0.0063853506,0.021484375,0.45166016,9.765625E-4,0.89160156
17/07/11 05:13:43:332,2029,-0.76708984,0.036132813,0.5629883,-0.038312104,-0.044697456,0.0063853506,0.021484375,0.45166016,9.765625E-4,0.89160156
17/07/11 05:13:43:337,2034,-0.7663574,0.03466797,0.56933594,-0.037247878,-0.044697456,0.0063853506,0.020507813,0.45166016,0.0,0.89160156
17/07/11 05:13:43:342,2039,-0.7663574,0.03466797,0.56933594,-0.037247878,-0.044697456,0.0063853506,0.020507813,0.45166016,0.0,0.89160156
17/07/11 05:13:43:347,2044,-0.7663574,0.03466797,0.56933594,-0.037247878,-0.044697456,0.0063853506,0.020507813,0.45166016,0.0,0.89160156
17/07/11 05:13:43:352,2049,-0.7663574,0.03466797,0.56933594,-0.037247878,-0.044697456,0.0063853506,0.020507813,0.45166016,0.0,0.89160156
17/07/11 05:13:43:357,2054,-0.7663574,0.03466797,0.56933594,-0.037247878,-0.044697456,0.0063853506,0.020507813,0.45166016,0.0,0.89160156
17/07/11 05:13:43:362,2059,-0.7663574,0.03466797,0.56933594,-0.037247878,-0.044697456,0.0063853506,0.020507813,0.45166016,0.0,0.89160156
17/07/11 05:13:43:367,2064,-0.7663574,0.03466797,0.56933594,-0.037247878,-0.044697456,0.0063853506,0.020507813,0.45166016,0.0,0.89160156
17/07/11 05:13:43:372,2069,-0.7687988,0.036621094,0.5656738,-0.037247878,-0.04576168,0.0074495757,0.020507813,0.4506836,0.0,0.89208984
17/07/11 05:13:43:377,2074,-0.76953125,0.03564453,0.56152344,-0.038312104,-0.046825904,0.008513801,0.020996094,0.4501953,4.8828125E-4,0.8925781
17/07/11 05:13:43:382,2079,-0.7705078,0.034423828,0.56591797,-0.038312104,-0.04576168,0.0074495757,0.020996094,0.4506836,4.8828125E-4,0.89208984
17/07/11 05:13:43:387,2084,-0.7705078,0.034423828,0.56591797,-0.038312104,-0.04576168,0.0074495757,0.020996094,0.4506836,4.8828125E-4,0.89208984
17/07/11 05:13:43:392,2089,-0.76000977,0.03564453,0.5666504,-0.038312104,-0.04576168,0.0074495757,0.020019531,0.45117188,0.0,0.89208984
17/07/11 05:13:43:397,2094,-0.76000977,0.03564453,0.5666504,-0.038312104,-0.04576168,0.0074495757,0.020019531,0.45117188,0.0,0.89208984
17/07/11 05:13:43:402,2099,-0.7644043,0.03564453,0.5583496,-0.037247878,-0.044697456,0.0063853506,0.020507813,0.4506836,0.0,0.8925781
17/07/11 05:13:43:408,2105,-0.7692871,0.036621094,0.56591797,-0.037247878,-0.04576168,0.0063853506,0.020507813,0.45117188,0.0,0.89208984
17/07/11 05:13:43:413,2110,-0.7692871,0.036621094,0.56591797,-0.037247878,-0.04576168,0.0063853506,0.020507813,0.45117188,0.0,0.89208984
17/07/11 05:13:43:418,2115,-0.7692871,0.034423828,0.56689453,-0.037247878,-0.04576168,0.0063853506,0.020996094,0.4506836,4.8828125E-4,0.89208984
17/07/11 05:13:43:423,2120,-0.7692871,0.034423828,0.56689453,-0.037247878,-0.04576168,0.0063853506,0.020996094,0.4506836,4.8828125E-4,0.89208984
17/07/11 05:13:43:428,2125,-0.7668457,0.034179688,0.5644531,-0.037247878,-0.046825904,0.0074495757,0.020507813,0.4506836,0.0,0.89208984
17/07/11 05:13:43:433,2130,-0.7668457,0.034179688,0.5644531,-0.037247878,-0.046825904,0.0074495757,0.020507813,0.4506836,0.0,0.89208984
17/07/11 05:13:43:439,2136,-0.76660156,0.035888672,0.5656738,-0.037247878,-0.044697456,0.008513801,0.01953125,0.4506836,0.0,0.89208984
17/07/11 05:13:43:445,2142,-0.76660156,0.035888672,0.5656738,-0.037247878,-0.044697456,0.008513801,0.01953125,0.4506836,0.0,0.89208984
17/07/11 05:13:43:450,2147,-0.7661133,0.03540039,0.56762695,-0.037247878,-0.04576168,0.0074495757,0.020019531,0.4501953,0.0,0.8925781
17/07/11 05:13:43:455,2152,-0.7661133,0.03540039,0.56762695,-0.037247878,-0.04576168,0.0074495757,0.020019531,0.4501953,0.0,0.8925781
17/07/11 05:13:43:460,2157,-0.76416016,0.034423828,0.5656738,-0.037247878,-0.04363323,0.0063853506,0.020507813,0.44970703,0.0,0.8925781
17/07/11 05:13:43:465,2162,-0.76416016,0.034423828,0.5656738,-0.037247878,-0.04363323,0.0063853506,0.020507813,0.44970703,0.0,0.8925781
17/07/11 05:13:43:471,2168,-0.77075195,0.034179688,0.56396484,-0.037247878,-0.04576168,0.0063853506,0.020019531,0.44921875,0.0,0.8930664
17/07/11 05:13:43:477,2174,-0.77075195,0.034179688,0.56396484,-0.037247878,-0.04576168,0.0063853506,0.020019531,0.44921875,0.0,0.8930664
17/07/11 05:13:43:482,2179,-0.76586914,0.03540039,0.56103516,-0.037247878,-0.046825904,0.0063853506,0.020019531,0.4501953,0.0,0.8925781
17/07/11 05:13:43:487,2184,-0.76586914,0.03540039,0.56103516,-0.037247878,-0.046825904,0.0063853506,0.020019531,0.4501953,0.0,0.8925781
17/07/11 05:13:43:492,2189,-0.76464844,0.03466797,0.5629883,-0.037247878,-0.04576168,0.0063853506,0.020019531,0.4506836,0.0,0.89208984
17/07/11 05:13:43:497,2194,-0.76464844,0.03466797,0.5629883,-0.037247878,-0.04576168,0.0063853506,0.020019531,0.4506836,0.0,0.89208984
17/07/11 05:13:43:502,2199,-0.7687988,0.03564453,0.5673828,-0.037247878,-0.04576168,0.0063853506,0.020019531,0.45117188,0.0,0.89208984
17/07/11 05:13:43:507,2204,-0.7687988,0.03564453,0.5673828,-0.037247878,-0.04576168,0.0063853506,0.020019531,0.45117188,0.0,0.89208984
17/07/11 05:13:43:512,2209,-0.77001953,0.03515625,0.5661621,-0.037247878,-0.046825904,0.0053211255,0.020507813,0.4501953,0.0,0.8925781
17/07/11 05:13:43:518,2215,-0.77001953,0.03515625,0.5661621,-0.037247878,-0.046825904,0.0053211255,0.020507813,0.4501953,0.0,0.8925781
17/07/11 05:13:43:523,2220,-0.77001953,0.03515625,0.5661621,-0.037247878,-0.046825904,0.0053211255,0.020507813,0.4501953,0.0,0.8925781
17/07/11 05:13:43:528,2225,-0.77001953,0.03515625,0.5661621,-0.037247878,-0.046825904,0.0053211255,0.020507813,0.4501953,0.0,0.8925781
17/07/11 05:13:43:533,2230,-0.77001953,0.03515625,0.5661621,-0.037247878,-0.046825904,0.0053211255,0.020507813,0.4501953,0.0,0.8925781
17/07/11 05:13:43:538,2235,-0.77001953,0.03515625,0.5661621,-0.037247878,-0.046825904,0.0053211255,0.020507813,0.4501953,0.0,0.8925781
17/07/11 05:13:43:543,2240,-0.7680664,0.03515625,0.55810547,-0.038312104,-0.04576168,0.0063853506,0.020019531,0.4506836,0.0,0.89208984
17/07/11 05:13:43:548,2245,-0.77124023,0.033203125,0.5644531,-0.037247878,-0.04576168,0.0074495757,0.01953125,0.45166016,0.0,0.89160156
17/07/11 05:13:43:553,2250,-0.7675781,0.033935547,0.56591797,-0.037247878,-0.04576168,0.0053211255,0.019042969,0.45214844,0.0,0.89160156
17/07/11 05:13:43:558,2255,-0.7648926,0.034423828,0.56274414,-0.037247878,-0.04576168,0.0074495757,0.01953125,0.45166016,0.0,0.89160156
17/07/11 05:13:43:563,2260,-0.7648926,0.034423828,0.56274414,-0.037247878,-0.04576168,0.0074495757,0.01953125,0.45166016,0.0,0.89160156
17/07/11 05:13:43:569,2266,-0.7648926,0.034423828,0.56274414,-0.037247878,-0.04576168,0.0074495757,0.01953125,0.45166016,0.0,0.89160156
17/07/11 05:13:43:574,2271,-0.7648926,0.034423828,0.56274414,-0.037247878,-0.04576168,0.0074495757,0.01953125,0.45166016,0.0,0.89160156
17/07/11 05:13:43:579,2276,-0.7648926,0.034423828,0.56274414,-0.037247878,-0.04576168,0.0074495757,0.01953125,0.45166016,0.0,0.89160156
17/07/11 05:13:43:585,2282,-0.7648926,0.034423828,0.56274414,-0.037247878,-0.04576168,0.0074495757,0.01953125,0.45166016,0.0,0.89160156
17/07/11 05:13:43:590,2287,-0.7648926,0.034423828,0.56274414,-0.037247878,-0.04576168,0.0074495757,0.01953125,0.45166016,0.0,0.89160156
17/07/11 05:13:43:596,2293,-0.7648926,0.034423828,0.56274414,-0.037247878,-0.04576168,0.0074495757,0.01953125,0.45166016,0.0,0.89160156
17/07/11 05:13:43:602,2299,-0.7648926,0.034423828,0.56274414,-0.037247878,-0.04576168,0.0074495757,0.01953125,0.45166016,0.0,0.89160156
17/07/11 05:13:43:608,2305,-0.7648926,0.034423828,0.56274414,-0.037247878,-0.04576168,0.0074495757,0.01953125,0.45166016,0.0,0.89160156
17/07/11 05:13:43:613,2310,-0.7648926,0.034423828,0.56274414,-0.037247878,-0.04576168,0.0074495757,0.01953125,0.45166016,0.0,0.89160156
17/07/11 05:13:43:618,2315,-0.77001953,0.036621094,0.5600586,-0.037247878,-0.04576168,0.0074495757,0.020019531,0.45117188,0.0,0.89208984
17/07/11 05:13:43:623,2320,-0.7687988,0.035888672,0.564209,-0.038312104,-0.044697456,0.0074495757,0.020996094,0.45166016,4.8828125E-4,0.89160156
17/07/11 05:13:43:633,2330,-0.7702637,0.03540039,0.56640625,-0.036183655,-0.044697456,0.0063853506,0.020507813,0.4506836,4.8828125E-4,0.89208984
17/07/11 05:13:43:638,2335,-0.76342773,0.032958984,0.56640625,-0.036183655,-0.044697456,0.0053211255,0.020019531,0.45117188,0.0,0.89208984
17/07/11 05:13:43:643,2340,-0.76342773,0.032958984,0.56640625,-0.036183655,-0.044697456,0.0053211255,0.020019531,0.45117188,0.0,0.89208984
17/07/11 05:13:43:648,2345,-0.76342773,0.032958984,0.56640625,-0.036183655,-0.044697456,0.0053211255,0.020019531,0.45117188,0.0,0.89208984
17/07/11 05:13:43:653,2350,-0.76342773,0.032958984,0.56640625,-0.036183655,-0.044697456,0.0053211255,0.020019531,0.45117188,0.0,0.89208984
17/07/11 05:13:43:658,2355,-0.76342773,0.032958984,0.56640625,-0.036183655,-0.044697456,0.0053211255,0.020019531,0.45117188,0.0,0.89208984
17/07/11 05:13:43:667,2364,-0.76342773,0.032958984,0.56640625,-0.036183655,-0.044697456,0.0053211255,0.020019531,0.45117188,0.0,0.89208984
17/07/11 05:13:43:672,2369,-0.7722168,0.036132813,0.55981445,-0.037247878,-0.044697456,0.008513801,0.020019531,0.4506836,0.0,0.8925781
17/07/11 05:13:43:679,2376,-0.77490234,0.03515625,0.56347656,-0.037247878,-0.046825904,0.0074495757,0.020507813,0.45117188,4.8828125E-4,0.89208984
17/07/11 05:13:43:695,2392,-0.77490234,0.03515625,0.56347656,-0.037247878,-0.046825904,0.0074495757,0.020507813,0.45117188,4.8828125E-4,0.89208984
17/07/11 05:13:43:700,2397,-0.74487305,0.024169922,0.5522461,-0.037247878,-0.046825904,0.0031926753,0.020507813,0.45214844,0.0,0.89160156
17/07/11 05:13:43:705,2402,-0.74487305,0.024169922,0.5522461,-0.037247878,-0.046825904,0.0031926753,0.020507813,0.45214844,0.0,0.89160156
17/07/11 05:13:43:710,2407,-0.79125977,0.038085938,0.5690918,-0.038312104,-0.04576168,0.011706476,0.019042969,0.45117188,0.0,0.89208984
17/07/11 05:13:43:715,2412,-0.79125977,0.038085938,0.5690918,-0.038312104,-0.04576168,0.011706476,0.019042969,0.45117188,0.0,0.89208984
17/07/11 05:13:43:720,2417,-0.6640625,-0.07128906,0.6254883,-0.04363323,-0.041504778,0.0021284502,0.020507813,0.45361328,0.0,0.890625
17/07/11 05:13:43:725,2422,-0.6640625,-0.07128906,0.6254883,-0.04363323,-0.041504778,0.0021284502,0.020507813,0.45361328,0.0,0.890625
17/07/11 05:13:43:730,2427,-0.6640625,-0.07128906,0.6254883,-0.04363323,-0.041504778,0.0021284502,0.020507813,0.45361328,0.0,0.890625
17/07/11 05:13:43:735,2432,-0.6640625,-0.07128906,0.6254883,-0.04363323,-0.041504778,0.0021284502,0.020507813,0.45361328,0.0,0.890625
17/07/11 05:13:43:740,2437,-0.6640625,-0.07128906,0.6254883,-0.04363323,-0.041504778,0.0021284502,0.020507813,0.45361328,0.0,0.890625
17/07/11 05:13:43:745,2442,-0.6640625,-0.07128906,0.6254883,-0.04363323,-0.041504778,0.0021284502,0.020507813,0.45361328,0.0,0.890625
17/07/11 05:13:43:750,2447,-0.6640625,-0.07128906,0.6254883,-0.04363323,-0.041504778,0.0021284502,0.020507813,0.45361328,0.0,0.890625
17/07/11 05:13:43:755,2452,-0.9279785,0.16015625,0.5625,-0.015963376,-0.040440552,0.032990977,0.016113281,0.44921875,-0.0014648438,0.8930664
17/07/11 05:13:43:760,2457,-0.7993164,0.053222656,0.5854492,-0.04576168,-0.040440552,0.013834926,0.021972656,0.44628906,9.765625E-4,0.89453125
17/07/11 05:13:43:765,2462,-0.7993164,0.053222656,0.5854492,-0.04576168,-0.040440552,0.013834926,0.024902344,0.45166016,0.0024414063,0.89160156
17/07/11 05:13:43:770,2467,-0.73779297,-0.057617188,0.6279297,-0.04789013,-0.055339705,-0.0,0.032226563,0.45166016,0.0063476563,0.89160156
17/07/11 05:13:43:775,2472,-0.73779297,-0.057617188,0.6279297,-0.04789013,-0.055339705,-0.0,0.032226563,0.45166016,0.0063476563,0.89160156
17/07/11 05:13:43:780,2477,-0.73779297,-0.057617188,0.6279297,-0.04789013,-0.055339705,-0.0,0.032226563,0.45166016,0.0063476563,0.89160156
17/07/11 05:13:43:785,2482,-0.73779297,-0.057617188,0.6279297,-0.04789013,-0.055339705,-0.0,0.032226563,0.45166016,0.0063476563,0.89160156
17/07/11 05:13:43:790,2487,-0.73779297,-0.057617188,0.6279297,-0.04789013,-0.055339705,-0.0,0.032226563,0.45166016,0.0063476563,0.89160156
17/07/11 05:13:43:795,2492,-0.73779297,-0.057617188,0.6279297,-0.04789013,-0.055339705,-0.0,0.032226563,0.45166016,0.0063476563,0.89160156
17/07/11 05:13:43:801,2498,-0.7734375,0.06958008,0.5366211,-0.022348728,-0.037247878,0.011706476,0.026367188,0.4482422,0.0034179688,0.8930664
17/07/11 05:13:43:806,2503,-0.8364258,0.050048828,0.5246582,-0.036183655,-0.046825904,0.018091828,0.02734375,0.45117188,0.00390625,0.89160156
17/07/11 05:13:43:812,2509,-0.72558594,0.10571289,0.5600586,-0.032990977,-0.040440552,-0.0021284502,0.02734375,0.45410156,0.0034179688,0.8901367
17/07/11 05:13:43:816,2513,-0.72558594,0.10571289,0.5600586,-0.032990977,-0.040440552,-0.0021284502,0.02734375,0.45410156,0.0034179688,0.8901367
17/07/11 05:13:43:821,2518,-0.6940918,-0.02709961,0.6044922,-0.051082805,-0.05214703,0.0010642251,0.033691406,0.4506836,0.0068359375,0.89160156
17/07/11 05:13:43:826,2523,-0.6940918,-0.02709961,0.6044922,-0.051082805,-0.05214703,0.0010642251,0.033691406,0.4506836,0.0068359375,0.89160156
17/07/11 05:13:43:831,2528,-0.8310547,0.0234375,0.5571289,-0.034055203,-0.03511943,0.022348728,0.028808594,0.44677734,0.0043945313,0.89404297
17/07/11 05:13:43:836,2533,-0.8310547,0.0234375,0.5571289,-0.034055203,-0.03511943,0.022348728,0.028808594,0.44677734,0.0043945313,0.89404297
17/07/11 05:13:43:841,2538,-0.8310547,0.0234375,0.5571289,-0.034055203,-0.03511943,0.022348728,0.028808594,0.44677734,0.0043945313,0.89404297
17/07/11 05:13:43:846,2543,-0.8310547,0.0234375,0.5571289,-0.034055203,-0.03511943,0.022348728,0.028808594,0.44677734,0.0043945313,0.89404297
17/07/11 05:13:43:851,2548,-0.8310547,0.0234375,0.5571289,-0.034055203,-0.03511943,0.022348728,0.028808594,0.44677734,0.0043945313,0.89404297
17/07/11 05:13:43:856,2553,-0.8310547,0.0234375,0.5571289,-0.034055203,-0.03511943,0.022348728,0.028808594,0.44677734,0.0043945313,0.89404297
17/07/11 05:13:43:861,2558,-0.8310547,0.0234375,0.564209,-0.034055203,-0.03511943,0.022348728,0.028808594,0.44677734,0.0043945313,0.89404297
17/07/11 05:13:43:866,2563,-0.73706055,0.024658203,0.564209,-0.03511943,-0.046825904,-0.0074495757,0.025390625,0.45214844,0.0029296875,0.89160156
17/07/11 05:13:43:871,2568,-0.7126465,0.03149414,0.5961914,-0.044697456,-0.053211257,-0.0010642251,0.02734375,0.45361328,0.00390625,0.890625
17/07/11 05:13:43:876,2573,-0.7126465,0.03149414,0.5961914,-0.044697456,-0.053211257,-0.0010642251,0.02734375,0.45361328,0.00390625,0.890625
17/07/11 05:13:43:881,2578,-0.7922363,0.022460938,0.55566406,-0.036183655,-0.044697456,0.015963376,0.025878906,0.4482422,0.0029296875,0.8935547
17/07/11 05:13:43:886,2583,-0.7922363,0.022460938,0.55566406,-0.036183655,-0.044697456,0.015963376,0.025878906,0.4482422,0.0029296875,0.8935547
17/07/11 05:13:43:891,2588,-0.7578125,0.045410156,0.5673828,-0.037247878,-0.038312104,-0.0010642251,0.023925781,0.4506836,0.001953125,0.89208984
17/07/11 05:13:43:896,2593,-0.7578125,0.045410156,0.5673828,-0.037247878,-0.038312104,-0.0010642251,0.023925781,0.4506836,0.001953125,0.89208984
17/07/11 05:13:43:901,2598,-0.78686523,-0.040283203,0.55078125,-0.04363323,-0.053211257,0.009578026,0.024414063,0.44921875,0.0024414063,0.8930664
17/07/11 05:13:43:906,2603,-0.78686523,-0.040283203,0.55078125,-0.04363323,-0.053211257,0.009578026,0.024414063,0.44921875,0.0024414063,0.8930664
17/07/11 05:13:43:911,2608,-0.77685547,0.0703125,0.55200195,-0.026605628,-0.04363323,0.0074495757,0.020996094,0.4501953,4.8828125E-4,0.8925781
17/07/11 05:13:43:917,2614,-0.77685547,0.0703125,0.55200195,-0.026605628,-0.04363323,0.0074495757,0.020996094,0.4501953,4.8828125E-4,0.8925781
17/07/11 05:13:43:922,2619,-0.7373047,0.057861328,0.5900879,-0.03937633,-0.04789013,0.0031926753,0.026855469,0.453125,0.0034179688,0.890625
17/07/11 05:13:43:927,2624,-0.7373047,0.057861328,0.5900879,-0.03937633,-0.04789013,0.0031926753,0.026855469,0.453125,0.0034179688,0.890625
17/07/11 05:13:43:932,2629,-0.7805176,0.026123047,0.5559082,-0.041504778,-0.04576168,0.011706476,0.02734375,0.4501953,0.00390625,0.89208984
17/07/11 05:13:43:937,2634,-0.7609863,0.075683594,0.5739746,-0.03192675,-0.041504778,0.0021284502,0.024414063,0.45214844,0.0024414063,0.8911133
17/07/11 05:13:43:942,2639,-0.7609863,0.075683594,0.5739746,-0.03192675,-0.041504778,0.0021284502,0.024414063,0.45214844,0.0024414063,0.8911133
17/07/11 05:13:43:947,2644,-0.77197266,-0.012207031,0.5551758,-0.042569004,-0.051082805,0.0074495757,0.027832031,0.4506836,0.00390625,0.89208984
17/07/11 05:13:43:952,2649,-0.77197266,-0.012207031,0.5551758,-0.042569004,-0.051082805,0.0074495757,0.027832031,0.4506836,0.00390625,0.89208984
17/07/11 05:13:43:957,2654,-0.77197266,-0.012207031,0.5551758,-0.037247878,-0.040440552,0.010642251,0.024414063,0.45117188,0.0024414063,0.89160156
17/07/11 05:13:43:962,2659,-0.7890625,0.022705078,0.5566406,-0.037247878,-0.040440552,0.010642251,0.024414063,0.45117188,0.0024414063,0.89160156
17/07/11 05:13:43:967,2664,-0.7890625,0.022705078,0.5566406,-0.037247878,-0.040440552,0.010642251,0.024414063,0.45117188,0.0024414063,0.89160156
17/07/11 05:13:43:972,2669,-0.7890625,0.022705078,0.5566406,-0.037247878,-0.040440552,0.010642251,0.024414063,0.45117188,0.0024414063,0.89160156
17/07/11 05:13:43:977,2674,-0.7890625,0.022705078,0.5566406,-0.037247878,-0.040440552,0.010642251,0.024414063,0.45117188,0.0024414063,0.89160156
17/07/11 05:13:43:982,2679,-0.7890625,0.022705078,0.5566406,-0.037247878,-0.040440552,0.010642251,0.024414063,0.45117188,0.0024414063,0.89160156
17/07/11 05:13:43:987,2684,-0.7890625,0.022705078,0.5566406,-0.037247878,-0.040440552,0.010642251,0.024414063,0.45117188,0.0024414063,0.89160156
17/07/11 05:13:43:992,2689,-0.7890625,0.022705078,0.5566406,-0.037247878,-0.040440552,0.010642251,0.024414063,0.45117188,0.0024414063,0.89160156
17/07/11 05:13:43:997,2694,-0.73950195,0.055664063,0.5812988,-0.034055203,-0.046825904,0.0031926753,0.022949219,0.45263672,0.0014648438,0.8911133
17/07/11 05:13:44:002,2699,-0.78222656,0.016357422,0.55029297,-0.042569004,-0.04789013,0.008513801,0.024414063,0.44970703,0.0024414063,0.8925781
17/07/11 05:13:44:007,2704,-0.78222656,0.016357422,0.55029297,-0.042569004,-0.04789013,0.008513801,0.024414063,0.44970703,0.0024414063,0.8925781
17/07/11 05:13:44:012,2709,-0.7775879,0.0087890625,0.5563965,-0.038312104,-0.04576168,0.0063853506,0.021972656,0.45214844,9.765625E-4,0.89160156
17/07/11 05:13:44:017,2714,-0.7775879,0.0087890625,0.5563965,-0.038312104,-0.04576168,0.0063853506,0.021972656,0.45214844,9.765625E-4,0.89160156
17/07/11 05:13:44:022,2719,-0.7775879,0.0087890625,0.5563965,-0.038312104,-0.04576168,0.0063853506,0.021972656,0.45214844,9.765625E-4,0.89160156
17/07/11 05:13:44:027,2724,-0.7775879,0.0087890625,0.5563965,-0.038312104,-0.04576168,0.0063853506,0.021972656,0.45214844,9.765625E-4,0.89160156
17/07/11 05:13:44:032,2729,-0.7775879,0.0087890625,0.5563965,-0.038312104,-0.04576168,0.0063853506,0.021972656,0.45214844,9.765625E-4,0.89160156
17/07/11 05:13:44:037,2734,-0.7775879,0.0087890625,0.5563965,-0.038312104,-0.04576168,0.0063853506,0.021972656,0.45214844,9.765625E-4,0.89160156
17/07/11 05:13:44:042,2739,-0.75390625,0.05126953,0.5786133,-0.036183655,-0.04363323,0.0042569004,0.020996094,0.45214844,4.8828125E-4,0.89160156
17/07/11 05:13:44:047,2744,-0.7573242,0.068603516,0.5703125,-0.029798303,-0.04363323,0.0021284502,0.020996094,0.4501953,4.8828125E-4,0.8925781
17/07/11 05:13:44:052,2749,-0.7727051,0.048095703,0.5551758,-0.037247878,-0.046825904,0.0074495757,0.024414063,0.44921875,0.0024414063,0.8930664
17/07/11 05:13:44:057,2754,-0.7727051,0.048095703,0.5551758,-0.037247878,-0.046825904,0.0074495757,0.024414063,0.44921875,0.0024414063,0.8930664
17/07/11 05:13:44:062,2759,-0.7763672,0.0068359375,0.5554199,-0.042569004,-0.04363323,0.008513801,0.024902344,0.4501953,0.0024414063,0.89208984
17/07/11 05:13:44:068,2765,-0.7763672,0.0068359375,0.5554199,-0.042569004,-0.04363323,0.008513801,0.024902344,0.4501953,0.0024414063,0.89208984
17/07/11 05:13:44:073,2770,-0.7763672,0.0068359375,0.5554199,-0.042569004,-0.04363323,0.008513801,0.024902344,0.4501953,0.0024414063,0.89208984
17/07/11 05:13:44:078,2775,-0.7763672,0.0068359375,0.5554199,-0.042569004,-0.04363323,0.008513801,0.024902344,0.4501953,0.0024414063,0.89208984
17/07/11 05:13:44:083,2780,-0.7763672,0.0068359375,0.5554199,-0.042569004,-0.04363323,0.008513801,0.024902344,0.4501953,0.0024414063,0.89208984
17/07/11 05:13:44:088,2785,-0.7763672,0.0068359375,0.5554199,-0.042569004,-0.04363323,0.008513801,0.024902344,0.4501953,0.0024414063,0.89208984
17/07/11 05:13:44:093,2790,-0.7570801,0.049072266,0.57592773,-0.034055203,-0.042569004,0.0053211255,0.022949219,0.45117188,0.0014648438,0.89208984
17/07/11 05:13:44:098,2795,-0.7570801,0.04711914,0.57055664,-0.036183655,-0.04363323,0.0031926753,0.022460938,0.44921875,0.0014648438,0.8930664
17/07/11 05:13:44:103,2800,-0.77197266,0.055664063,0.55688477,-0.036183655,-0.044697456,0.0074495757,0.023925781,0.4477539,0.001953125,0.8935547
17/07/11 05:13:44:109,2806,-0.7697754,0.022216797,0.5529785,-0.037247878,-0.048954353,0.0074495757,0.023925781,0.4477539,0.001953125,0.8935547
17/07/11 05:13:44:113,2810,-0.7697754,0.022216797,0.5529785,-0.037247878,-0.048954353,0.0074495757,0.024902344,0.44873047,0.0024414063,0.8930664
17/07/11 05:13:44:118,2815,-0.7685547,0.04663086,0.5776367,-0.03511943,-0.040440552,0.0074495757,0.024902344,0.44873047,0.0024414063,0.8930664
17/07/11 05:13:44:123,2820,-0.7685547,0.04663086,0.5776367,-0.03511943,-0.040440552,0.0074495757,0.0234375,0.44970703,0.001953125,0.8925781
17/07/11 05:13:44:128,2825,-0.7692871,0.020019531,0.55371094,-0.03937633,-0.046825904,0.0074495757,0.0234375,0.44970703,0.001953125,0.8925781
17/07/11 05:13:44:133,2830,-0.7692871,0.020019531,0.55371094,-0.03937633,-0.046825904,0.0074495757,0.023925781,0.44873047,0.001953125,0.8930664
17/07/11 05:13:44:138,2835,-0.7595215,0.02758789,0.57006836,-0.03511943,-0.04789013,0.0042569004,0.023925781,0.44873047,0.001953125,0.8930664
17/07/11 05:13:44:144,2841,-0.7595215,0.02758789,0.57006836,-0.03511943,-0.04789013,0.0042569004,0.022460938,0.44970703,0.0014648438,0.8925781
17/07/11 05:13:44:149,2846,-0.7595215,0.02758789,0.57006836,-0.03511943,-0.04789013,0.0042569004,0.022460938,0.44970703,0.0014648438,0.8925781
17/07/11 05:13:44:154,2851,-0.7753906,0.061767578,0.5541992,-0.034055203,-0.042569004,0.0074495757,0.020996094,0.44873047,4.8828125E-4,0.8930664
17/07/11 05:13:44:159,2856,-0.7729492,0.02319336,0.5605469,-0.041504778,-0.04789013,0.0063853506,0.022460938,0.44970703,0.0014648438,0.8925781
17/07/11 05:13:44:164,2861,-0.7729492,0.02319336,0.5605469,-0.041504778,-0.04789013,0.0063853506,0.022460938,0.44970703,0.0014648438,0.8925781
17/07/11 05:13:44:169,2866,-0.7729492,0.02319336,0.5605469,-0.041504778,-0.04789013,0.0063853506,0.022460938,0.44970703,0.0014648438,0.8925781
17/07/11 05:13:44:174,2871,-0.7729492,0.02319336,0.5605469,-0.041504778,-0.04789013,0.0063853506,0.022460938,0.44970703,0.0014648438,0.8925781
17/07/11 05:13:44:179,2876,-0.7729492,0.02319336,0.5605469,-0.041504778,-0.04789013,0.0063853506,0.022460938,0.44970703,0.0014648438,0.8925781
17/07/11 05:13:44:184,2881,-0.7729492,0.02319336,0.5605469,-0.041504778,-0.04789013,0.0063853506,0.022460938,0.44970703,0.0014648438,0.8925781
17/07/11 05:13:44:189,2886,-0.7729492,0.02319336,0.5605469,-0.041504778,-0.04789013,0.0063853506,0.022460938,0.44970703,0.0014648438,0.8925781
17/07/11 05:13:44:194,2891,-0.76464844,0.045654297,0.56640625,-0.034055203,-0.04363323,0.0053211255,0.020996094,0.4506836,4.8828125E-4,0.89208984
17/07/11 05:13:44:200,2897,-0.7722168,0.01928711,0.5632324,-0.034055203,-0.03937633,0.009578026,0.022460938,0.4506836,0.0014648438,0.89208984
17/07/11 05:13:44:205,2902,-0.7722168,0.01928711,0.5632324,-0.034055203,-0.03937633,0.009578026,0.020507813,0.4506836,4.8828125E-4,0.89208984
17/07/11 05:13:44:210,2907,-0.78344727,0.064697266,0.5385742,-0.030862529,-0.05214703,0.0074495757,0.020019531,0.4506836,0.0,0.89208984
17/07/11 05:13:44:215,2912,-0.78344727,0.064697266,0.5385742,-0.030862529,-0.05214703,0.0074495757,0.020019531,0.4506836,0.0,0.89208984
17/07/11 05:13:44:220,2917,-0.78344727,0.064697266,0.5385742,-0.030862529,-0.05214703,0.0074495757,0.020019531,0.4506836,0.0,0.89208984
17/07/11 05:13:44:225,2922,-0.78344727,0.064697266,0.5385742,-0.030862529,-0.05214703,0.0074495757,0.020019531,0.4506836,0.0,0.89208984
17/07/11 05:13:44:230,2927,-0.78344727,0.064697266,0.5385742,-0.030862529,-0.05214703,0.0074495757,0.020019531,0.4506836,0.0,0.89208984
17/07/11 05:13:44:235,2932,-0.78344727,0.064697266,0.5385742,-0.030862529,-0.05214703,0.0074495757,0.020019531,0.4506836,0.0,0.89208984
17/07/11 05:13:44:240,2937,-0.80200195,0.048095703,0.56225586,-0.040440552,-0.05001858,0.0031926753,0.022460938,0.453125,9.765625E-4,0.8911133
17/07/11 05:13:44:245,2942,-0.7766113,-0.009521484,0.5810547,-0.046825904,-0.048954353,0.0042569004,0.024414063,0.45654297,0.001953125,0.88916016
17/07/11 05:13:44:251,2948,-0.73876953,-0.007080078,0.5493164,-0.037247878,-0.04576168,0.0042569004,0.018066406,0.45458984,-4.8828125E-4,0.890625
17/07/11 05:13:44:256,2953,-0.73876953,-0.007080078,0.5493164,-0.037247878,-0.04576168,0.0042569004,0.018066406,0.45458984,-4.8828125E-4,0.890625
17/07/11 05:13:44:262,2959,-0.8129883,0.015625,0.5698242,-0.038312104,-0.044697456,0.012770701,0.016601563,0.45361328,-0.0014648438,0.890625
17/07/11 05:13:44:267,2964,-0.8129883,0.015625,0.5698242,-0.038312104,-0.044697456,0.012770701,0.016601563,0.45361328,-0.0014648438,0.890625
17/07/11 05:13:44:272,2969,-0.74780273,0.020507813,0.54956055,-0.036183655,-0.053211257,-0.0031926753,0.0146484375,0.4560547,-0.0024414063,0.88964844
17/07/11 05:13:44:278,2975,-0.74780273,0.020507813,0.54956055,-0.036183655,-0.053211257,-0.0031926753,0.0146484375,0.4560547,-0.0024414063,0.88964844
17/07/11 05:13:44:283,2980,-0.81518555,0.05810547,0.54907227,-0.034055203,-0.04363323,0.013834926,0.014160156,0.45361328,-0.0024414063,0.8911133
17/07/11 05:13:44:288,2985,-0.81518555,0.05810547,0.54907227,-0.034055203,-0.04363323,0.013834926,0.014160156,0.45361328,-0.0024414063,0.8911133
17/07/11 05:13:44:294,2991,-0.7565918,0.045410156,0.5515137,-0.03937633,-0.04363323,0.0010642251,0.016113281,0.4555664,-0.0014648438,0.88964844
17/07/11 05:13:44:299,2996,-0.7980957,0.016113281,0.5654297,-0.03937633,-0.044697456,0.011706476,0.01953125,0.45458984,0.0,0.8901367
17/07/11 05:13:44:304,3001,-0.7980957,0.016113281,0.5654297,-0.03937633,-0.044697456,0.011706476,0.01953125,0.45458984,0.0,0.8901367
17/07/11 05:13:44:309,3006,-0.73217773,0.026367188,0.5498047,-0.036183655,-0.04576168,-0.0010642251,0.016601563,0.4560547,-0.0014648438,0.88964844
17/07/11 05:13:44:314,3011,-0.73217773,0.026367188,0.5498047,-0.036183655,-0.04576168,-0.0010642251,0.016601563,0.4560547,-0.0014648438,0.88964844
17/07/11 05:13:44:320,3017,-0.77246094,0.01171875,0.5644531,-0.040440552,-0.048954353,0.009578026,0.016601563,0.453125,-0.0014648438,0.8911133
17/07/11 05:13:44:326,3023,-0.77246094,0.01171875,0.5644531,-0.040440552,-0.048954353,0.009578026,0.016601563,0.453125,-0.0014648438,0.8911133
17/07/11 05:13:44:331,3028,-0.8166504,0.05908203,0.546875,-0.032990977,-0.04363323,0.012770701,0.0146484375,0.453125,-0.001953125,0.8911133
17/07/11 05:13:44:336,3033,-0.8166504,0.05908203,0.546875,-0.032990977,-0.04363323,0.012770701,0.0146484375,0.453125,-0.001953125,0.8911133
17/07/11 05:13:44:341,3038,-0.76416016,0.024658203,0.5827637,-0.038312104,-0.04363323,0.0053211255,0.017089844,0.4555664,-9.765625E-4,0.8901367
17/07/11 05:13:44:347,3044,-0.76416016,0.024658203,0.5827637,-0.038312104,-0.04363323,0.0053211255,0.017089844,0.4555664,-9.765625E-4,0.8901367
17/07/11 05:13:44:352,3049,-0.76660156,0.049072266,0.5163574,-0.03192675,-0.04576168,0.0074495757,0.016601563,0.45263672,-0.0014648438,0.8911133
17/07/11 05:13:44:357,3054,-0.77783203,0.020019531,0.57666016,-0.041504778,-0.05001858,0.0031926753,0.018066406,0.45507813,-4.8828125E-4,0.8901367
17/07/11 05:13:44:362,3059,-0.77783203,0.020019531,0.57666016,-0.041504778,-0.05001858,0.0031926753,0.018066406,0.45507813,-4.8828125E-4,0.8901367
17/07/11 05:13:44:368,3065,-0.81152344,0.059814453,0.53466797,-0.032990977,-0.042569004,0.014899151,0.016113281,0.45263672,-0.0014648438,0.8911133
17/07/11 05:13:44:373,3070,-0.81152344,0.059814453,0.53466797,-0.032990977,-0.042569004,0.014899151,0.016113281,0.45263672,-0.0014648438,0.8911133
17/07/11 05:13:44:378,3075,-0.76220703,0.014160156,0.58496094,-0.041504778,-0.046825904,0.0031926753,0.018066406,0.45507813,-4.8828125E-4,0.8901367
17/07/11 05:13:44:384,3081,-0.76220703,0.014160156,0.58496094,-0.041504778,-0.046825904,0.0031926753,0.018066406,0.45507813,-4.8828125E-4,0.8901367
17/07/11 05:13:44:389,3086,-0.76220703,0.014160156,0.58496094,-0.041504778,-0.046825904,0.0031926753,0.018066406,0.45507813,-4.8828125E-4,0.8901367
17/07/11 05:13:44:394,3091,-0.76220703,0.014160156,0.58496094,-0.041504778,-0.046825904,0.0031926753,0.018066406,0.45507813,-4.8828125E-4,0.8901367
17/07/11 05:13:44:399,3096,-0.76220703,0.014160156,0.58496094,-0.041504778,-0.046825904,0.0031926753,0.018066406,0.45507813,-4.8828125E-4,0.8901367
17/07/11 05:13:44:404,3101,-0.76220703,0.014160156,0.58496094,-0.041504778,-0.046825904,0.0031926753,0.018066406,0.45507813,-4.8828125E-4,0.8901367
17/07/11 05:13:44:409,3106,-0.76220703,0.014160156,0.58496094,-0.041504778,-0.046825904,0.0031926753,0.018066406,0.45507813,-4.8828125E-4,0.8901367
17/07/11 05:13:44:414,3111,-0.75219727,0.0034179688,0.5710449,-0.03937633,-0.044697456,0.0063853506,0.016601563,0.45263672,-0.0014648438,0.8911133
17/07/11 05:13:44:419,3116,-0.77783203,0.048339844,0.5397949,-0.034055203,-0.044697456,0.012770701,0.016113281,0.45166016,-0.0014648438,0.89208984
17/07/11 05:13:44:424,3121,-0.77783203,0.048339844,0.5397949,-0.034055203,-0.044697456,0.012770701,0.016113281,0.45166016,-0.0014648438,0.89208984
17/07/11 05:13:44:429,3126,-0.72924805,0.06982422,0.60913086,-0.042569004,-0.04363323,0.0021284502,0.018066406,0.45361328,-4.8828125E-4,0.890625
17/07/11 05:13:44:434,3131,-0.72924805,0.06982422,0.60913086,-0.042569004,-0.04363323,0.0021284502,0.018066406,0.45361328,-4.8828125E-4,0.890625
17/07/11 05:13:44:439,3136,-0.72924805,0.06982422,0.60913086,-0.042569004,-0.04363323,0.0021284502,0.018066406,0.45361328,-4.8828125E-4,0.890625
17/07/11 05:13:44:444,3141,-0.72924805,0.06982422,0.60913086,-0.042569004,-0.04363323,0.0021284502,0.018066406,0.45361328,-4.8828125E-4,0.890625
17/07/11 05:13:44:449,3146,-0.72924805,0.06982422,0.60913086,-0.042569004,-0.04363323,0.0021284502,0.018066406,0.45361328,-4.8828125E-4,0.890625
17/07/11 05:13:44:454,3151,-0.72924805,0.06982422,0.60913086,-0.042569004,-0.04363323,0.0021284502,0.018066406,0.45361328,-4.8828125E-4,0.890625
17/07/11 05:13:44:459,3156,-0.72924805,0.06982422,0.60913086,-0.042569004,-0.04363323,0.0021284502,0.018066406,0.45361328,-4.8828125E-4,0.890625
17/07/11 05:13:44:464,3161,-0.79907227,0.025878906,0.5583496,-0.057468154,-0.028734077,0.010642251,0.01953125,0.45117188,0.0,0.89208984
17/07/11 05:13:44:469,3166,-0.79174805,-0.001953125,0.5187988,-0.044697456,-0.03937633,0.0053211255,0.017578125,0.45263672,-4.8828125E-4,0.8911133
17/07/11 05:13:44:474,3171,-0.8000488,0.020996094,0.52734375,-0.030862529,-0.051082805,0.008513801,0.015625,0.4555664,-0.0014648438,0.8901367
17/07/11 05:13:44:480,3177,-0.7692871,0.01977539,0.54003906,-0.026605628,-0.055339705,0.009578026,0.015625,0.45654297,-0.0014648438,0.88916016
17/07/11 05:13:44:485,3182,-0.7692871,0.01977539,0.54003906,-0.026605628,-0.055339705,0.009578026,0.015625,0.45654297,-0.0014648438,0.88916016
17/07/11 05:13:44:490,3187,-0.7692871,0.01977539,0.54003906,-0.026605628,-0.055339705,0.009578026,0.015625,0.45654297,-0.0014648438,0.88916016
17/07/11 05:13:44:495,3192,-0.7692871,0.01977539,0.54003906,-0.026605628,-0.055339705,0.009578026,0.015625,0.45654297,-0.0014648438,0.88916016
17/07/11 05:13:44:500,3197,-0.7692871,0.01977539,0.54003906,-0.026605628,-0.055339705,0.009578026,0.015625,0.45654297,-0.0014648438,0.88916016
17/07/11 05:13:44:506,3203,-0.7692871,0.01977539,0.54003906,-0.026605628,-0.055339705,0.009578026,0.015625,0.45654297,-0.0014648438,0.88916016
17/07/11 05:13:44:511,3208,-0.7492676,0.055908203,0.6281738,-0.037247878,-0.046825904,0.009578026,0.015136719,0.4580078,-0.001953125,0.8886719
17/07/11 05:13:44:517,3214,-0.7963867,0.010498047,0.5949707,-0.05001858,-0.038312104,0.017027602,0.016601563,0.45263672,-9.765625E-4,0.8911133
17/07/11 05:13:44:522,3219,-0.845459,0.072753906,0.45825195,-0.029798303,-0.021284502,0.021284502,0.013671875,0.45117188,-0.0024414063,0.89208984
17/07/11 05:13:44:527,3224,-0.7988281,0.27392578,0.49829102,-0.017027602,-0.029798303,0.013834926,0.013671875,0.45117188,-0.0024414063,0.89208984
17/07/11 05:13:44:532,3229,-0.7988281,0.27392578,0.49829102,-0.017027602,-0.029798303,0.013834926,0.016113281,0.45654297,-9.765625E-4,0.88964844
17/07/11 05:13:44:538,3235,-0.7390137,0.09741211,0.61450195,-0.08194533,-0.017027602,0.014899151,0.016113281,0.45654297,-9.765625E-4,0.88964844
17/07/11 05:13:44:543,3240,-0.7390137,0.09741211,0.61450195,-0.08194533,-0.017027602,0.014899151,0.029785156,0.45947266,0.0053710938,0.8876953
17/07/11 05:13:44:548,3245,-0.7067871,-0.15600586,0.65527344,-0.094716035,-0.020220276,0.0074495757,0.029785156,0.45947266,0.0053710938,0.8876953
17/07/11 05:13:44:554,3251,-0.7067871,-0.15600586,0.65527344,-0.094716035,-0.020220276,0.0074495757,0.03515625,0.44921875,0.0087890625,0.8925781
17/07/11 05:13:44:559,3256,-0.7182617,-0.24804688,0.579834,-0.019156052,-0.05214703,0.0021284502,0.022949219,0.44384766,0.0029296875,0.8955078
17/07/11 05:13:44:564,3261,-0.7182617,-0.24804688,0.579834,-0.019156052,-0.05214703,0.0021284502,0.022949219,0.44384766,0.0029296875,0.8955078
17/07/11 05:13:44:569,3266,-0.78344727,0.11987305,0.62939453,0.0031926753,0.008513801,-0.0031926753,0.022949219,0.44384766,0.0029296875,0.8955078
17/07/11 05:13:44:574,3271,-0.78344727,0.11987305,0.62939453,0.0031926753,0.008513801,-0.0031926753,0.015625,0.44335938,0.0,0.8959961
17/07/11 05:13:44:580,3277,-0.87890625,-0.020507813,0.45654297,-0.014899151,-0.094716035,0.0042569004,0.029785156,0.43896484,0.0063476563,0.8979492
17/07/11 05:13:44:584,3281,-0.87890625,-0.020507813,0.45654297,-0.014899151,-0.094716035,0.0042569004,0.029785156,0.43896484,0.0063476563,0.8979492
17/07/11 05:13:44:589,3286,-0.8508301,-0.0871582,0.51342773,0.11493631,-0.23625797,-0.0010642251,0.024902344,0.4501953,0.0034179688,0.8925781
17/07/11 05:13:44:595,3292,-0.8508301,-0.0871582,0.51342773,0.11493631,-0.23625797,-0.0010642251,0.024902344,0.4501953,0.0034179688,0.8925781
17/07/11 05:13:44:600,3297,-0.8508301,-0.0871582,0.51342773,0.11493631,-0.23625797,-0.0010642251,0.024902344,0.4501953,0.0034179688,0.8925781
17/07/11 05:13:44:605,3302,-0.8508301,-0.0871582,0.51342773,0.11493631,-0.23625797,-0.0010642251,0.024902344,0.4501953,0.0034179688,0.8925781
17/07/11 05:13:44:610,3307,-0.8508301,-0.0871582,0.51342773,0.11493631,-0.23625797,-0.0010642251,0.024902344,0.4501953,0.0034179688,0.8925781
17/07/11 05:13:44:615,3312,-0.8508301,-0.0871582,0.51342773,0.11493631,-0.23625797,-0.0010642251,0.024902344,0.4501953,0.0034179688,0.8925781
17/07/11 05:13:44:620,3317,-0.8508301,-0.0871582,0.51342773,0.11493631,-0.23625797,-0.0010642251,0.024902344,0.4501953,0.0034179688,0.8925781
17/07/11 05:13:44:625,3322,-0.71118164,0.0847168,0.60668945,0.46613058,-0.51827765,-0.034055203,0.0234375,0.45214844,-0.005859375,0.89160156
17/07/11 05:13:44:630,3327,-0.73461914,0.28710938,0.59765625,0.37035033,-0.25647825,-0.017027602,0.027832031,0.44677734,-0.0073242188,0.89404297
17/07/11 05:13:44:635,3332,-0.73461914,0.28710938,0.59765625,0.37035033,-0.25647825,-0.017027602,0.027832031,0.44677734,-0.0073242188,0.89404297
17/07/11 05:13:44:640,3337,-0.87597656,0.08959961,0.52441406,0.12557857,-0.19262475,0.036183655,0.04345703,0.44433594,-0.001953125,0.89453125
17/07/11 05:13:44:645,3342,-0.87597656,0.08959961,0.52441406,0.12557857,-0.19262475,0.036183655,0.04345703,0.44433594,-0.001953125,0.89453125
17/07/11 05:13:44:650,3347,-0.87597656,0.08959961,0.52441406,0.12557857,-0.19262475,0.036183655,0.04345703,0.44433594,-0.001953125,0.89453125
17/07/11 05:13:44:655,3352,-0.87597656,0.08959961,0.52441406,0.12557857,-0.19262475,0.036183655,0.04345703,0.44433594,-0.001953125,0.89453125
17/07/11 05:13:44:660,3357,-0.87597656,0.08959961,0.52441406,0.12557857,-0.19262475,0.036183655,0.04345703,0.44433594,-0.001953125,0.89453125
17/07/11 05:13:44:665,3362,-0.87597656,0.08959961,0.52441406,0.12557857,-0.19262475,0.036183655,0.04345703,0.44433594,-0.001953125,0.89453125
17/07/11 05:13:44:670,3367,-0.87597656,0.08959961,0.52441406,0.12557857,-0.19262475,0.036183655,0.04345703,0.44433594,-0.001953125,0.89453125
17/07/11 05:13:44:676,3373,-0.7331543,-0.032470703,0.52685547,0.017027602,-0.07236731,-0.0063853506,0.045410156,0.4555664,-0.0024414063,0.88916016
17/07/11 05:13:44:681,3378,-0.7680664,0.033935547,0.59155273,0.30862528,-0.3437447,-0.013834926,0.030761719,0.4555664,-0.013183594,0.88964844
17/07/11 05:13:44:686,3383,-0.7680664,0.033935547,0.59155273,0.30862528,-0.3437447,-0.013834926,0.030761719,0.4555664,-0.013183594,0.88964844
17/07/11 05:13:44:691,3388,-0.68481445,0.05834961,0.58618164,0.3011757,-0.4533599,-0.03192675,0.030761719,0.45263672,-0.015625,0.890625
17/07/11 05:13:44:697,3394,-0.68481445,0.05834961,0.58618164,0.3011757,-0.4533599,-0.03192675,0.030761719,0.45263672,-0.015625,0.890625
17/07/11 05:13:44:702,3399,-0.80981445,-0.056884766,0.5576172,0.23200107,-0.37141457,-0.017027602,0.032226563,0.44970703,-0.017578125,0.89208984
17/07/11 05:13:44:708,3405,-0.80981445,-0.056884766,0.5576172,0.23200107,-0.37141457,-0.017027602,0.032226563,0.44970703,-0.017578125,0.89208984
17/07/11 05:13:44:713,3410,-0.857666,-0.22998047,0.5270996,0.29798302,-0.40227708,-0.07555998,0.025878906,0.45214844,-0.022949219,0.8911133
17/07/11 05:13:44:718,3415,-0.857666,-0.22998047,0.5270996,0.29798302,-0.40227708,-0.07555998,0.025878906,0.45214844,-0.022949219,0.8911133
17/07/11 05:13:44:724,3421,-0.93481445,-0.23632813,0.5109863,0.619379,-0.6119294,-0.16814756,0.020019531,0.45410156,-0.028808594,0.8901367
17/07/11 05:13:44:729,3426,-0.86499023,0.1262207,0.56689453,0.9418392,-0.7992331,-0.35438696,0.018554688,0.45507813,-0.034179688,0.88964844
17/07/11 05:13:44:734,3431,-0.86499023,0.1262207,0.56689453,0.9418392,-0.7992331,-0.35438696,0.018554688,0.45507813,-0.034179688,0.88964844
17/07/11 05:13:44:739,3436,-0.8823242,0.091552734,0.5354004,0.950353,-0.86415076,-0.5044427,0.034179688,0.45751953,-0.033203125,0.8876953
17/07/11 05:13:44:745,3442,-0.8823242,0.091552734,0.5354004,0.950353,-0.86415076,-0.5044427,0.034179688,0.45751953,-0.033203125,0.8876953
17/07/11 05:13:44:750,3447,-0.9477539,0.016357422,0.57373047,0.8471232,-0.8215818,-0.67471874,0.037597656,0.45654297,-0.03857422,0.8881836
17/07/11 05:13:44:755,3452,-0.9477539,0.016357422,0.57373047,0.8471232,-0.8215818,-0.67471874,0.037597656,0.45654297,-0.03857422,0.8881836
17/07/11 05:13:44:760,3457,-0.9477539,0.044677734,0.5732422,0.8471232,-0.8215818,-0.67471874,0.037597656,0.45654297,-0.03857422,0.8881836
17/07/11 05:13:44:765,3462,-0.75512695,0.044677734,0.5732422,0.813068,-0.813068,-0.9162978,0.0390625,0.45898438,-0.044921875,0.88623047
17/07/11 05:13:44:770,3467,-0.7507324,0.012451172,0.58935547,0.83115983,-0.8279671,-1.0014359,0.04296875,0.44921875,-0.048828125,0.890625
17/07/11 05:13:44:776,3473,-0.7507324,0.012451172,0.58935547,0.83115983,-0.8279671,-1.0014359,0.04296875,0.44921875,-0.048828125,0.890625
17/07/11 05:13:44:781,3478,-0.7373047,0.01171875,0.55859375,0.85776544,-0.8386094,-1.0237845,0.043945313,0.44335938,-0.05517578,0.8930664
17/07/11 05:13:44:786,3483,-0.7373047,0.01171875,0.55859375,0.85776544,-0.8386094,-1.0237845,0.043945313,0.44335938,-0.05517578,0.8930664
17/07/11 05:13:44:791,3488,-0.71777344,0.072753906,0.5900879,0.9365181,-0.8428663,-1.0365553,0.044433594,0.43896484,-0.06201172,0.89501953
17/07/11 05:13:44:796,3493,-0.71777344,0.072753906,0.5900879,0.9365181,-0.8428663,-1.0365553,0.044433594,0.43896484,-0.06201172,0.89501953
17/07/11 05:13:44:801,3498,-0.8161621,0.076416016,0.58862305,0.92374736,-0.8588297,-1.0035642,0.049316406,0.4321289,-0.06640625,0.8979492
17/07/11 05:13:44:806,3503,-0.8161621,0.076416016,0.58862305,0.92374736,-0.8588297,-1.0035642,0.049316406,0.4321289,-0.06640625,0.8979492
17/07/11 05:13:44:811,3508,-0.8015137,0.118652344,0.6040039,0.8524443,-0.822646,-1.1025372,0.053710938,0.4296875,-0.07128906,0.8984375
17/07/11 05:13:44:816,3513,-0.8015137,0.118652344,0.6040039,0.8524443,-0.822646,-1.1025372,0.053710938,0.4296875,-0.07128906,0.8984375
17/07/11 05:13:44:821,3518,-0.7680664,0.0690918,0.6201172,0.7577283,-0.79391193,-1.1972532,0.057617188,0.4248047,-0.076171875,0.89990234
17/07/11 05:13:44:826,3523,-0.7680664,0.0690918,0.6201172,0.7577283,-0.79391193,-1.1972532,0.057617188,0.4248047,-0.076171875,0.89990234
17/07/11 05:13:44:831,3528,-0.7265625,0.041015625,0.6166992,0.67684716,-0.74708605,-1.285584,0.0625,0.4194336,-0.080078125,0.90185547
17/07/11 05:13:44:836,3533,-0.7265625,0.041015625,0.6166992,0.67684716,-0.74708605,-1.285584,0.0625,0.4194336,-0.080078125,0.90185547
17/07/11 05:13:44:841,3538,-0.7265625,0.041015625,0.6166992,0.67684716,-0.74708605,-1.285584,0.0625,0.4194336,-0.080078125,0.90185547
17/07/11 05:13:44:847,3544,-0.7265625,0.041015625,0.6166992,0.67684716,-0.74708605,-1.285584,0.0625,0.4194336,-0.080078125,0.90185547
17/07/11 05:13:44:852,3549,-0.7265625,0.041015625,0.6166992,0.67684716,-0.74708605,-1.285584,0.0625,0.4194336,-0.080078125,0.90185547
17/07/11 05:13:44:858,3555,-0.7265625,0.041015625,0.6166992,0.67684716,-0.74708605,-1.285584,0.0625,0.4194336,-0.080078125,0.90185547
17/07/11 05:13:44:863,3560,-0.6999512,0.045898438,0.6455078,0.6693976,-0.7513429,-1.3228317,0.0625,0.4111328,-0.08544922,0.90527344
17/07/11 05:13:44:868,3565,-0.7121582,0.036132813,0.6477051,0.6779114,-0.79178345,-1.3920064,0.064941406,0.39648438,-0.095703125,0.91064453
17/07/11 05:13:44:873,3570,-0.6791992,0.005126953,0.65722656,0.69919586,-0.8439305,-1.4441534,0.06591797,0.390625,-0.10107422,0.91259766
17/07/11 05:13:44:878,3575,-0.6791992,0.005126953,0.65722656,0.69919586,-0.8439305,-1.4441534,0.06591797,0.390625,-0.10107422,0.91259766
17/07/11 05:13:44:883,3580,-0.6791992,0.005126953,0.65722656,0.69919586,-0.8439305,-1.4441534,0.06591797,0.390625,-0.10107422,0.91259766
17/07/11 05:13:44:888,3585,-0.6791992,0.005126953,0.65722656,0.69919586,-0.8439305,-1.4441534,0.06591797,0.390625,-0.10107422,0.91259766
17/07/11 05:13:44:893,3590,-0.6791992,0.005126953,0.65722656,0.69919586,-0.8439305,-1.4441534,0.06591797,0.390625,-0.10107422,0.91259766
17/07/11 05:13:44:898,3595,-0.6791992,0.005126953,0.65722656,0.69919586,-0.8439305,-1.4441534,0.06591797,0.390625,-0.10107422,0.91259766
17/07/11 05:13:44:903,3600,-0.66064453,-0.0078125,0.6574707,0.7460218,-0.9205547,-1.4633095,0.064941406,0.38330078,-0.107421875,0.9145508
17/07/11 05:13:44:908,3605,-0.6179199,0.0146484375,0.68725586,0.9641879,-1.2557856,-1.343052,0.064453125,0.36035156,-0.12890625,0.9213867
17/07/11 05:13:44:913,3610,-0.6179199,0.0146484375,0.68725586,0.9641879,-1.2557856,-1.343052,0.064453125,0.36035156,-0.12890625,0.9213867
17/07/11 05:13:44:918,3615,-0.6179199,0.0146484375,0.68725586,0.9641879,-1.2557856,-1.343052,0.064453125,0.36035156,-0.12890625,0.9213867
17/07/11 05:13:44:923,3620,-0.6179199,0.0146484375,0.68725586,0.9641879,-1.2557856,-1.343052,0.064453125,0.36035156,-0.12890625,0.9213867
17/07/11 05:13:44:928,3625,-0.6179199,0.0146484375,0.68725586,0.9641879,-1.2557856,-1.343052,0.064453125,0.36035156,-0.12890625,0.9213867
17/07/11 05:13:44:934,3631,-0.6179199,0.0146484375,0.68725586,0.9641879,-1.2557856,-1.343052,0.064453125,0.36035156,-0.12890625,0.9213867
17/07/11 05:13:44:939,3636,-0.6179199,0.0146484375,0.68725586,0.9641879,-1.2557856,-1.343052,0.064453125,0.36035156,-0.12890625,0.9213867
17/07/11 05:13:44:944,3641,-0.6154785,0.032714844,0.70092773,1.0716747,-1.451603,-1.3196391,0.06542969,0.35253906,-0.13720703,0.92285156
17/07/11 05:13:44:950,3647,-0.5996094,0.080322266,0.73461914,1.1206291,-1.5750531,-1.3398594,0.07324219,0.33398438,-0.16210938,0.92529297
17/07/11 05:13:44:955,3652,-0.5996094,0.080322266,0.73461914,1.1206291,-1.5750531,-1.3398594,0.07324219,0.33398438,-0.16210938,0.92529297
17/07/11 05:13:44:960,3657,-0.59375,0.09057617,0.74121094,1.091895,-1.5814385,-1.3707219,0.076660156,0.32666016,-0.17138672,0.92626953
17/07/11 05:13:44:965,3662,-0.59375,0.09057617,0.74121094,1.091895,-1.5814385,-1.3707219,0.076660156,0.32666016,-0.17138672,0.92626953
17/07/11 05:13:44:970,3667,-0.59375,0.09057617,0.74121094,1.091895,-1.5814385,-1.3707219,0.076660156,0.32666016,-0.17138672,0.92626953
17/07/11 05:13:44:975,3672,-0.59375,0.09057617,0.74121094,1.091895,-1.5814385,-1.3707219,0.076660156,0.32666016,-0.17138672,0.92626953
17/07/11 05:13:44:981,3678,-0.59375,0.09057617,0.74121094,1.091895,-1.5814385,-1.3707219,0.076660156,0.32666016,-0.17138672,0.92626953
17/07/11 05:13:44:985,3682,-0.59375,0.09057617,0.74121094,1.091895,-1.5814385,-1.3707219,0.076660156,0.32666016,-0.17138672,0.92626953
17/07/11 05:13:44:990,3687,-0.611084,0.08081055,0.7480469,1.091895,-1.5814385,-1.3707219,0.076660156,0.32666016,-0.17138672,0.92626953
17/07/11 05:13:44:995,3692,-0.611084,0.08081055,0.7480469,1.039748,-1.5516402,-1.4260616,0.07910156,0.31982422,-0.18066406,0.9267578
17/07/11 05:13:45:000,3697,-0.56591797,0.056884766,0.7585449,0.9248116,-1.4931078,-1.57931,0.083984375,0.30517578,-0.1977539,0.9272461
17/07/11 05:13:45:005,3702,-0.52783203,0.056884766,0.7578125,0.8960775,-1.5069427,-1.6037872,0.08642578,0.296875,-0.20605469,0.92822266
17/07/11 05:13:45:010,3707,-0.5395508,0.072021484,0.77783203,0.8811784,-1.5260988,-1.6176221,0.087890625,0.28759766,-0.21435547,0.9291992
17/07/11 05:13:45:015,3712,-0.5395508,0.072021484,0.77783203,0.8811784,-1.5260988,-1.6176221,0.087890625,0.28759766,-0.21435547,0.9291992
17/07/11 05:13:45:020,3717,-0.5344238,0.0847168,0.77978516,0.84605896,-1.5399337,-1.6580627,0.09033203,0.27929688,-0.22265625,0.9291992
17/07/11 05:13:45:025,3722,-0.5344238,0.0847168,0.77978516,0.84605896,-1.5399337,-1.6580627,0.09033203,0.27929688,-0.22265625,0.9291992
17/07/11 05:13:45:030,3727,-0.5344238,0.0847168,0.77978516,0.84605896,-1.5399337,-1.6580627,0.09033203,0.27929688,-0.22265625,0.9291992
17/07/11 05:13:45:035,3732,-0.5344238,0.0847168,0.77978516,0.84605896,-1.5399337,-1.6580627,0.09033203,0.27929688,-0.22265625,0.9291992
17/07/11 05:13:45:040,3737,-0.5344238,0.0847168,0.77978516,0.84605896,-1.5399337,-1.6580627,0.09033203,0.27929688,-0.22265625,0.9291992
17/07/11 05:13:45:045,3742,-0.5344238,0.0847168,0.77978516,0.84605896,-1.5399337,-1.6580627,0.09033203,0.27929688,-0.22265625,0.9291992
17/07/11 05:13:45:050,3747,-0.5344238,0.0847168,0.77978516,0.84605896,-1.5399337,-1.6580627,0.09033203,0.27929688,-0.22265625,0.9291992
17/07/11 05:13:45:055,3752,-0.46411133,0.08520508,0.8054199,0.74070066,-1.5335484,-1.7666137,0.09326172,0.2524414,-0.24804688,0.9301758
17/07/11 05:13:45:060,3757,-0.4711914,0.095703125,0.82250977,0.7087739,-1.5133281,-1.8113111,0.09375,0.24365234,-0.25634766,0.9301758
17/07/11 05:13:45:065,3762,-0.4711914,0.095703125,0.82250977,0.7087739,-1.5133281,-1.8113111,0.09375,0.24365234,-0.25634766,0.9301758
17/07/11 05:13:45:070,3767,-0.4711914,0.095703125,0.82250977,0.7087739,-1.5133281,-1.8113111,0.09375,0.24365234,-0.25634766,0.9301758
17/07/11 05:13:45:075,3772,-0.4711914,0.095703125,0.82250977,0.7087739,-1.5133281,-1.8113111,0.09375,0.24365234,-0.25634766,0.9301758
17/07/11 05:13:45:081,3778,-0.4711914,0.095703125,0.82250977,0.7087739,-1.5133281,-1.8113111,0.09375,0.24365234,-0.25634766,0.9301758
17/07/11 05:13:45:086,3783,-0.4711914,0.095703125,0.82250977,0.7087739,-1.5133281,-1.8113111,0.09375,0.24365234,-0.25634766,0.9301758
17/07/11 05:13:45:092,3789,-0.4765625,0.09863281,0.82128906,0.6576911,-1.4824655,-1.8879353,0.09375,0.24365234,-0.25634766,0.93066406
17/07/11 05:13:45:098,3795,-0.45385742,0.1003418,0.8391113,0.5257272,-1.3366667,-2.1156795,0.095214844,0.21582031,-0.27978516,0.9301758
17/07/11 05:13:45:103,3800,-0.45166016,0.1003418,0.8391113,0.44803876,-1.2259873,-2.2540288,0.09423828,0.2055664,-0.28710938,0.93066406
17/07/11 05:13:45:108,3805,-0.4128418,0.10522461,0.8430176,0.37567145,-1.1216933,-2.411534,0.09277344,0.1953125,-0.2939453,0.93066406
17/07/11 05:13:45:113,3810,-0.4128418,0.10522461,0.8430176,0.37567145,-1.1216933,-2.411534,0.09277344,0.1953125,-0.2939453,0.93066406
17/07/11 05:13:45:118,3815,-0.37451172,0.09765625,0.85253906,0.30756104,-1.0205919,-2.5754247,0.091796875,0.18408203,-0.30029297,0.93115234
17/07/11 05:13:45:123,3820,-0.37451172,0.09765625,0.85253906,0.30756104,-1.0205919,-2.5754247,0.091796875,0.18408203,-0.30029297,0.93115234
17/07/11 05:13:45:128,3825,-0.30395508,0.087402344,0.8457031,0.24902867,-0.9333254,-2.7116456,0.09033203,0.171875,-0.30566406,0.9321289
17/07/11 05:13:45:133,3830,-0.30395508,0.087402344,0.8457031,0.24902867,-0.9333254,-2.7116456,0.09033203,0.171875,-0.30566406,0.9321289
17/07/11 05:13:45:139,3836,-0.2763672,0.0703125,0.8540039,0.1947532,-0.8077468,-2.804233,0.088378906,0.15576172,-0.31054688,0.93310547
17/07/11 05:13:45:144,3841,-0.2763672,0.0703125,0.8540039,0.1947532,-0.8077468,-2.804233,0.088378906,0.15576172,-0.31054688,0.93310547
17/07/11 05:13:45:149,3846,-0.27416992,0.060791016,0.8569336,0.14473462,-0.72792995,-2.8521233,0.083984375,0.140625,-0.3154297,0.9345703
17/07/11 05:13:45:155,3852,-0.27416992,0.060791016,0.8569336,0.14473462,-0.72792995,-2.8521233,0.083984375,0.140625,-0.3154297,0.9345703
17/07/11 05:13:45:160,3857,-0.2121582,0.07446289,0.86328125,0.10855096,-0.6832325,-2.8893712,0.079589844,0.12646484,-0.31982422,0.9350586
17/07/11 05:13:45:165,3862,-0.2121582,0.07446289,0.86328125,0.10855096,-0.6832325,-2.8893712,0.079589844,0.12646484,-0.31982422,0.9350586
17/07/11 05:13:45:170,3867,-0.17822266,0.072265625,0.8654785,0.06704618,-0.59490186,-2.9202337,0.07519531,0.109375,-0.32421875,0.93652344
17/07/11 05:13:45:175,3872,-0.17822266,0.072265625,0.8654785,0.06704618,-0.59490186,-2.9202337,0.07519531,0.109375,-0.32421875,0.93652344
17/07/11 05:13:45:180,3877,-0.16821289,0.06323242,0.86376953,0.028734077,-0.49699312,-2.941518,0.0703125,0.09375,-0.32763672,0.9375
17/07/11 05:13:45:185,3882,-0.16821289,0.06323242,0.86376953,0.028734077,-0.49699312,-2.941518,0.0703125,0.09375,-0.32763672,0.9375
17/07/11 05:13:45:190,3887,-0.12402344,0.06542969,0.87158203,0.0042569004,-0.43207538,-2.98728,0.06542969,0.07910156,-0.3305664,0.9379883
17/07/11 05:13:45:195,3892,-0.12402344,0.06542969,0.87158203,0.0042569004,-0.43207538,-2.98728,0.06542969,0.07910156,-0.3305664,0.9379883
17/07/11 05:13:45:200,3897,-0.103027344,0.051513672,0.8671875,-0.012770701,-0.39269906,-3.0245278,0.059570313,0.06347656,-0.3334961,0.93847656
17/07/11 05:13:45:205,3902,-0.103027344,0.051513672,0.8671875,-0.012770701,-0.39269906,-3.0245278,0.059570313,0.06347656,-0.3334961,0.93847656
17/07/11 05:13:45:210,3907,-0.083984375,0.046142578,0.8691406,-0.024477176,-0.33310246,-3.0766747,0.053710938,0.047851563,-0.3359375,0.93896484
17/07/11 05:13:45:215,3912,-0.083984375,0.046142578,0.8691406,-0.024477176,-0.33310246,-3.0766747,0.053710938,0.047851563,-0.3359375,0.93896484
17/07/11 05:13:45:220,3917,-0.026855469,0.03515625,0.87402344,-0.036183655,-0.2756343,-3.1501062,0.047851563,0.032714844,-0.33789063,0.93896484
17/07/11 05:13:45:226,3923,0.049804688,0.033935547,0.8652344,-0.044697456,-0.11174364,-3.2224736,0.032714844,-4.8828125E-4,-0.3408203,0.9394531
17/07/11 05:13:45:240,3937,0.049804688,0.033935547,0.8652344,-0.044697456,-0.11174364,-3.2224736,0.032714844,-4.8828125E-4,-0.3408203,0.9394531
17/07/11 05:13:45:246,3943,0.049804688,0.033935547,0.8652344,-0.044697456,-0.11174364,-3.2224736,0.032714844,-4.8828125E-4,-0.3408203,0.9394531
17/07/11 05:13:45:251,3948,0.08618164,0.028564453,0.8703613,-0.05001858,-0.008513801,-3.2395012,0.024902344,-0.018554688,-0.3413086,0.93896484
17/07/11 05:13:45:256,3953,0.111083984,-9.765625E-4,0.861084,-0.042569004,0.042569004,-3.2416296,0.018066406,-0.03564453,-0.34179688,0.93896484
17/07/11 05:13:45:263,3960,0.111083984,-9.765625E-4,0.861084,-0.042569004,0.042569004,-3.2416296,0.018066406,-0.03564453,-0.34179688,0.93896484
17/07/11 05:13:45:268,3965,0.111083984,-9.765625E-4,0.861084,-0.042569004,0.042569004,-3.2416296,0.018066406,-0.03564453,-0.34179688,0.93896484
17/07/11 05:13:45:273,3970,0.111083984,-9.765625E-4,0.861084,-0.042569004,0.042569004,-3.2416296,0.018066406,-0.03564453,-0.34179688,0.93896484
17/07/11 05:13:45:278,3975,0.111083984,-9.765625E-4,0.861084,-0.042569004,0.042569004,-3.2416296,0.018066406,-0.03564453,-0.34179688,0.93896484
17/07/11 05:13:45:283,3980,0.111083984,-9.765625E-4,0.861084,-0.042569004,0.042569004,-3.2416296,0.018066406,-0.03564453,-0.34179688,0.93896484
17/07/11 05:13:45:288,3985,0.111083984,-9.765625E-4,0.861084,-0.042569004,0.042569004,-3.2416296,0.018066406,-0.03564453,-0.34179688,0.93896484
17/07/11 05:13:45:294,3991,0.12963867,-0.011474609,0.85961914,0.0053211255,0.12025744,-3.2586572,0.0107421875,-0.051757813,-0.3413086,0.93847656
17/07/11 05:13:45:299,3996,0.17675781,0.038330078,0.8408203,0.07236731,0.4533599,-3.3310246,-0.0107421875,-0.100097656,-0.33642578,0.93603516
17/07/11 05:13:45:304,4001,0.17675781,0.038330078,0.8408203,0.07236731,0.4533599,-3.3310246,-0.0107421875,-0.100097656,-0.33642578,0.93603516
17/07/11 05:13:45:310,4007,0.30566406,0.115478516,0.8586426,0.009578026,0.46506637,-3.4033918,-0.018066406,-0.119140625,-0.3334961,0.9345703
17/07/11 05:13:45:315,4012,0.30566406,0.115478516,0.8586426,0.009578026,0.46506637,-3.4033918,-0.018066406,-0.119140625,-0.3334961,0.9345703
17/07/11 05:13:45:321,4018,0.30566406,0.115478516,0.8586426,0.009578026,0.46506637,-3.4033918,-0.018066406,-0.119140625,-0.3334961,0.9345703
17/07/11 05:13:45:327,4024,0.30566406,0.115478516,0.8586426,0.009578026,0.46506637,-3.4033918,-0.018066406,-0.119140625,-0.3334961,0.9345703
17/07/11 05:13:45:333,4030,0.30566406,0.115478516,0.8586426,0.009578026,0.46506637,-3.4033918,-0.018066406,-0.119140625,-0.3334961,0.9345703
17/07/11 05:13:45:338,4035,0.30566406,0.115478516,0.8586426,0.009578026,0.46506637,-3.4033918,-0.018066406,-0.119140625,-0.3334961,0.9345703
17/07/11 05:13:45:343,4040,0.2705078,0.0043945313,0.7788086,0.022348728,0.5427548,-3.3948781,-0.021484375,-0.14208984,-0.3310547,0.9326172
17/07/11 05:13:45:349,4046,0.35717773,-0.18237305,0.70532227,0.24370755,1.1419135,-3.3586943,-0.056640625,-0.1953125,-0.31396484,0.9272461
17/07/11 05:13:45:353,4050,0.35717773,-0.18237305,0.70532227,0.24370755,1.1419135,-3.3586943,-0.056640625,-0.1953125,-0.31396484,0.9272461
17/07/11 05:13:45:358,4055,0.35717773,-0.18237305,0.70532227,0.24370755,1.1419135,-3.3586943,-0.056640625,-0.1953125,-0.31396484,0.9272461
17/07/11 05:13:45:363,4060,0.35717773,-0.18237305,0.70532227,0.24370755,1.1419135,-3.3586943,-0.056640625,-0.1953125,-0.31396484,0.9272461
17/07/11 05:13:45:370,4067,0.35717773,-0.18237305,0.70532227,0.24370755,1.1419135,-3.3586943,-0.056640625,-0.1953125,-0.31396484,0.9272461
17/07/11 05:13:45:375,4072,0.35717773,-0.18237305,0.70532227,0.24370755,1.1419135,-3.3586943,-0.056640625,-0.1953125,-0.31396484,0.9272461
17/07/11 05:13:45:381,4078,0.35717773,-0.18237305,0.70532227,0.24370755,1.1419135,-3.3586943,-0.056640625,-0.1953125,-0.31396484,0.9272461
17/07/11 05:13:45:386,4083,0.35717773,-0.18237305,0.70532227,0.24370755,1.1419135,-3.3586943,-0.056640625,-0.1953125,-0.31396484,0.9272461
17/07/11 05:13:45:391,4088,0.35717773,-0.18237305,0.70532227,0.24370755,1.1419135,-3.3586943,-0.056640625,-0.1953125,-0.31396484,0.9272461
17/07/11 05:13:45:396,4093,0.35717773,-0.18237305,0.70532227,0.24370755,1.1419135,-3.3586943,-0.056640625,-0.1953125,-0.31396484,0.9272461
17/07/11 05:13:45:401,4098,0.35717773,-0.18237305,0.70532227,0.24370755,1.1419135,-3.3586943,-0.056640625,-0.1953125,-0.31396484,0.9272461
17/07/11 05:13:45:406,4103,0.35717773,-0.18237305,0.70532227,0.24370755,1.1419135,-3.3586943,-0.056640625,-0.1953125,-0.31396484,0.9272461
17/07/11 05:13:45:411,4108,0.45361328,-0.026855469,0.80566406,0.44697455,1.1834183,-3.3544376,-0.06933594,-0.21044922,-0.30517578,0.92578125
17/07/11 05:13:45:416,4113,0.45361328,-0.026855469,0.80566406,0.44697455,1.1834183,-3.3544376,-0.06933594,-0.21044922,-0.30517578,0.92578125
17/07/11 05:13:45:421,4118,0.45361328,-0.026855469,0.80566406,0.44697455,1.1834183,-3.3544376,-0.06933594,-0.21044922,-0.30517578,0.92578125
17/07/11 05:13:45:426,4123,0.45361328,-0.026855469,0.80566406,0.44697455,1.1834183,-3.3544376,-0.06933594,-0.21044922,-0.30517578,0.92578125
17/07/11 05:13:45:431,4128,0.45361328,-0.026855469,0.80566406,0.44697455,1.1834183,-3.3544376,-0.06933594,-0.21044922,-0.30517578,0.92578125
17/07/11 05:13:45:437,4134,0.45361328,-0.026855469,0.80566406,0.44697455,1.1834183,-3.3544376,-0.06933594,-0.21044922,-0.30517578,0.92578125
17/07/11 05:13:45:441,4138,0.45361328,-0.026855469,0.80566406,0.44697455,1.1834183,-3.3544376,-0.06933594,-0.21044922,-0.30517578,0.92578125
17/07/11 05:13:45:446,4143,0.45361328,-0.026855469,0.80566406,0.44697455,1.1834183,-3.3544376,-0.06933594,-0.21044922,-0.30517578,0.92578125
17/07/11 05:13:45:451,4148,0.45361328,-0.026855469,0.80566406,0.44697455,1.1834183,-3.3544376,-0.06933594,-0.21044922,-0.30517578,0.92578125
17/07/11 05:13:45:456,4153,0.45361328,-0.026855469,0.80566406,0.44697455,1.1834183,-3.3544376,-0.06933594,-0.21044922,-0.30517578,0.92578125
17/07/11 05:13:45:461,4158,0.45361328,-0.026855469,0.80566406,0.44697455,1.1834183,-3.3544376,-0.06933594,-0.21044922,-0.30517578,0.92578125
17/07/11 05:13:45:467,4164,0.69799805,-0.09326172,0.6882324,1.2440791,1.9219905,-2.7361228,-0.122558594,-0.3383789,-0.2290039,0.9042969
17/07/11 05:13:45:472,4169,0.69799805,-0.09326172,0.6882324,1.2440791,1.9219905,-2.7361228,-0.122558594,-0.3383789,-0.2290039,0.9042969
17/07/11 05:13:45:477,4174,0.69799805,-0.09326172,0.6882324,1.2440791,1.9219905,-2.7361228,-0.122558594,-0.3383789,-0.2290039,0.9042969
17/07/11 05:13:45:483,4180,0.69799805,-0.09326172,0.6882324,1.2440791,1.9219905,-2.7361228,-0.122558594,-0.3383789,-0.2290039,0.9042969
17/07/11 05:13:45:488,4185,0.69799805,-0.09326172,0.6882324,1.2440791,1.9219905,-2.7361228,-0.122558594,-0.3383789,-0.2290039,0.9042969
17/07/11 05:13:45:493,4190,0.69799805,-0.09326172,0.6882324,1.2440791,1.9219905,-2.7361228,-0.122558594,-0.3383789,-0.2290039,0.9042969
17/07/11 05:13:45:498,4195,0.69799805,-0.09326172,0.6882324,1.2440791,1.9219905,-2.7361228,-0.122558594,-0.3383789,-0.2290039,0.9042969
17/07/11 05:13:45:503,4200,0.69799805,-0.09326172,0.6882324,1.2440791,1.9219905,-2.7361228,-0.122558594,-0.3383789,-0.2290039,0.9042969
17/07/11 05:13:45:508,4205,0.69799805,-0.09326172,0.6882324,1.2440791,1.9219905,-2.7361228,-0.122558594,-0.3383789,-0.2290039,0.9042969
17/07/11 05:13:45:513,4210,0.69799805,-0.09326172,0.6882324,1.2440791,1.9219905,-2.7361228,-0.122558594,-0.3383789,-0.2290039,0.9042969
17/07/11 05:13:45:518,4215,0.69799805,-0.09326172,0.6882324,1.2440791,1.9219905,-2.7361228,-0.122558594,-0.3383789,-0.2290039,0.9042969
17/07/11 05:13:45:523,4220,0.8413086,-0.07861328,0.6086426,2.1444135,2.407277,-1.6229433,-0.122558594,-0.4116211,-0.1430664,0.89160156
17/07/11 05:13:45:528,4225,0.8413086,-0.07861328,0.6086426,2.1444135,2.407277,-1.6229433,-0.122558594,-0.4116211,-0.1430664,0.89160156
17/07/11 05:13:45:533,4230,0.8413086,-0.07861328,0.6086426,2.1444135,2.407277,-1.6229433,-0.122558594,-0.4116211,-0.1430664,0.89160156
17/07/11 05:13:45:538,4235,0.8413086,-0.07861328,0.6086426,2.1444135,2.407277,-1.6229433,-0.122558594,-0.4116211,-0.1430664,0.89160156
17/07/11 05:13:45:543,4240,0.8413086,-0.07861328,0.6086426,2.1444135,2.407277,-1.6229433,-0.122558594,-0.4116211,-0.1430664,0.89160156
17/07/11 05:13:45:548,4245,0.8413086,-0.07861328,0.6086426,2.1444135,2.407277,-1.6229433,-0.122558594,-0.4116211,-0.1430664,0.89160156
17/07/11 05:13:45:554,4251,0.8413086,-0.07861328,0.6086426,2.1444135,2.407277,-1.6229433,-0.122558594,-0.4116211,-0.1430664,0.89160156
17/07/11 05:13:45:559,4256,0.8413086,-0.07861328,0.6086426,2.1444135,2.407277,-1.6229433,-0.122558594,-0.4116211,-0.1430664,0.89160156
17/07/11 05:13:45:564,4261,0.8413086,-0.07861328,0.6086426,2.1444135,2.407277,-1.6229433,-0.122558594,-0.4116211,-0.1430664,0.89160156
17/07/11 05:13:45:569,4266,0.8413086,-0.07861328,0.6086426,2.1444135,2.407277,-1.6229433,-0.122558594,-0.4116211,-0.1430664,0.89160156
17/07/11 05:13:45:574,4271,0.9626465,-0.072265625,0.58569336,2.269992,2.4477177,-1.4473461,-0.118652344,-0.42041016,-0.12695313,0.890625
17/07/11 05:13:45:579,4276,0.87939453,-0.053710938,0.54785156,3.0181425,2.9808946,-0.11067941,-0.087890625,-0.45166016,-0.03857422,0.88671875
17/07/11 05:13:45:585,4282,0.87939453,-0.053710938,0.54785156,3.0181425,2.9808946,-0.11067941,-0.087890625,-0.45166016,-0.03857422,0.88671875
17/07/11 05:13:45:590,4287,0.87939453,-0.053710938,0.54785156,3.0181425,2.9808946,-0.11067941,-0.087890625,-0.45166016,-0.03857422,0.88671875
17/07/11 05:13:45:595,4292,0.87939453,-0.053710938,0.54785156,3.0181425,2.9808946,-0.11067941,-0.087890625,-0.45166016,-0.03857422,0.88671875
17/07/11 05:13:45:600,4297,1.0092773,0.06347656,0.6008301,2.9000134,2.7903981,1.2249231,-0.025390625,-0.45654297,0.046875,0.8881836
17/07/11 05:13:45:605,4302,1.0092773,0.06347656,0.6008301,2.9000134,2.7903981,1.2249231,-0.025390625,-0.45654297,0.046875,0.8881836
17/07/11 05:13:45:611,4308,0.9663086,0.1472168,0.58081055,2.9063988,3.0117571,1.5069427,-0.016113281,-0.45166016,0.064453125,0.88964844
17/07/11 05:13:45:615,4312,0.9663086,0.1472168,0.58081055,2.9063988,3.0117571,1.5069427,-0.016113281,-0.45166016,0.064453125,0.88964844
17/07/11 05:13:45:620,4317,0.79589844,0.1899414,0.6064453,2.7882698,2.9521604,1.8474947,-0.0073242188,-0.44433594,0.08251953,0.89160156
17/07/11 05:13:45:625,4322,0.79589844,0.1899414,0.6064453,2.7882698,2.9521604,1.8474947,-0.0073242188,-0.44433594,0.08251953,0.89160156
17/07/11 05:13:45:630,4327,0.76049805,0.19311523,0.64282227,2.6158652,2.8010404,2.0220277,0.0043945313,-0.4345703,0.09863281,0.89501953
17/07/11 05:13:45:635,4332,0.76049805,0.19311523,0.64282227,2.6158652,2.8010404,2.0220277,0.0043945313,-0.4345703,0.09863281,0.89501953
17/07/11 05:13:45:640,4337,0.8425293,0.18457031,0.6320801,2.4477177,2.7872055,2.0901382,0.0126953125,-0.42333984,0.115722656,0.8984375
17/07/11 05:13:45:645,4342,0.8425293,0.18457031,0.6320801,2.4477177,2.7872055,2.0901382,0.0126953125,-0.42333984,0.115722656,0.8984375
17/07/11 05:13:45:650,4347,0.7722168,0.16723633,0.6555176,2.2987263,2.7499576,2.274249,0.020019531,-0.41259766,0.13232422,0.9008789
17/07/11 05:13:45:655,4352,0.7722168,0.16723633,0.6555176,2.2987263,2.7499576,2.274249,0.020019531,-0.41259766,0.13232422,0.9008789
17/07/11 05:13:45:660,4357,0.71899414,0.16870117,0.6582031,2.1497347,2.709517,2.3987634,0.026855469,-0.4008789,0.14794922,0.9033203
17/07/11 05:13:45:667,4364,0.71899414,0.16870117,0.6582031,2.1497347,2.709517,2.3987634,0.026855469,-0.4008789,0.14794922,0.9033203
17/07/11 05:13:45:672,4369,0.79711914,0.20458984,0.8408203,1.937954,2.6084156,2.5307274,0.032714844,-0.3881836,0.16357422,0.90625
17/07/11 05:13:45:677,4374,0.79711914,0.20458984,0.8408203,1.937954,2.6084156,2.5307274,0.032714844,-0.3881836,0.16357422,0.90625
17/07/11 05:13:45:682,4379,0.7246094,0.19921875,0.67041016,1.588888,2.2689278,2.8021047,0.048339844,-0.37060547,0.1743164,0.91064453
17/07/11 05:13:45:687,4384,0.7246094,0.19921875,0.67041016,1.588888,2.2689278,2.8021047,0.048339844,-0.37060547,0.1743164,0.91064453
17/07/11 05:13:45:692,4389,0.7246094,0.19921875,0.67041016,1.588888,2.2689278,2.8021047,0.048339844,-0.37060547,0.1743164,0.91064453
17/07/11 05:13:45:697,4394,0.7246094,0.19921875,0.67041016,1.588888,2.2689278,2.8021047,0.048339844,-0.37060547,0.1743164,0.91064453
17/07/11 05:13:45:702,4399,0.7246094,0.19921875,0.67041016,1.588888,2.2689278,2.8021047,0.048339844,-0.37060547,0.1743164,0.91064453
17/07/11 05:13:45:707,4404,0.7246094,0.19921875,0.67041016,1.588888,2.2689278,2.8021047,0.048339844,-0.37060547,0.1743164,0.91064453
17/07/11 05:13:45:712,4409,0.7246094,0.19921875,0.67041016,1.588888,2.2689278,2.8021047,0.048339844,-0.37060547,0.1743164,0.91064453
17/07/11 05:13:45:718,4415,0.59375,0.41064453,0.68530273,1.3973275,1.9698807,3.0202708,0.056152344,-0.3569336,0.18554688,0.9135742
17/07/11 05:13:45:723,4420,0.59375,0.41064453,0.68530273,1.3973275,1.9698807,3.0202708,0.056152344,-0.3569336,0.18554688,0.9135742
17/07/11 05:13:45:728,4425,0.59375,0.41064453,0.68530273,1.3973275,1.9698807,3.0202708,0.056152344,-0.3569336,0.18554688,0.9135742
17/07/11 05:13:45:733,4430,0.59375,0.41064453,0.68530273,1.3973275,1.9698807,3.0202708,0.056152344,-0.3569336,0.18554688,0.9135742
17/07/11 05:13:45:738,4435,0.59375,0.41064453,0.68530273,1.3973275,1.9698807,3.0202708,0.056152344,-0.3569336,0.18554688,0.9135742
17/07/11 05:13:45:743,4440,0.59375,0.41064453,0.68530273,1.3973275,1.9698807,3.0202708,0.056152344,-0.3569336,0.18554688,0.9135742
17/07/11 05:13:45:748,4445,0.59375,0.41064453,0.68530273,1.3973275,1.9698807,3.0202708,0.056152344,-0.3569336,0.18554688,0.9135742
17/07/11 05:13:45:753,4450,0.59375,0.41064453,0.68530273,1.3973275,1.9698807,3.0202708,0.056152344,-0.3569336,0.18554688,0.9135742
17/07/11 05:13:45:758,4455,0.59375,0.41064453,0.68530273,1.3973275,1.9698807,3.0202708,0.056152344,-0.3569336,0.18554688,0.9135742
17/07/11 05:13:45:764,4461,0.59375,0.41064453,0.68530273,1.3973275,1.9698807,3.0202708,0.056152344,-0.3569336,0.18554688,0.9135742
17/07/11 05:13:45:769,4466,0.4230957,0.1237793,0.7858887,0.69281054,1.4899151,3.478952,0.08300781,-0.26513672,0.22753906,0.93310547
17/07/11 05:13:45:774,4471,0.4230957,0.1237793,0.7858887,0.69281054,1.4899151,3.478952,0.08300781,-0.26513672,0.22753906,0.93310547
17/07/11 05:13:45:780,4477,0.4230957,0.1237793,0.7858887,0.69281054,1.4899151,3.478952,0.08300781,-0.26513672,0.22753906,0.93310547
17/07/11 05:13:45:785,4482,0.4230957,0.1237793,0.7858887,0.69281054,1.4899151,3.478952,0.08300781,-0.26513672,0.22753906,0.93310547
17/07/11 05:13:45:791,4488,0.4230957,0.1237793,0.7858887,0.69281054,1.4899151,3.478952,0.08300781,-0.26513672,0.22753906,0.93310547
17/07/11 05:13:45:797,4494,0.4230957,0.1237793,0.7858887,0.69281054,1.4899151,3.478952,0.08300781,-0.26513672,0.22753906,0.93310547
17/07/11 05:13:45:802,4499,0.4230957,0.1237793,0.7858887,0.69281054,1.4899151,3.478952,0.08300781,-0.26513672,0.22753906,0.93310547
