global time,time(in ms),AccX,AccY,AccZ,GyroX,GyroY,GyroZ,QuatX,QuatY,QuatZ,QuatW
17/07/11 05:07:01:751,27,-0.75512695,0.030517578,0.5788574,-0.03511943,-0.04576168,0.0063853506,0.018554688,0.4428711,-4.8828125E-4,0.8964844
17/07/11 05:07:01:756,32,-0.75512695,0.030517578,0.5788574,-0.03511943,-0.04576168,0.0063853506,0.018554688,0.4428711,-4.8828125E-4,0.8964844
17/07/11 05:07:01:761,37,-0.75512695,0.030517578,0.5788574,-0.03511943,-0.04576168,0.0063853506,0.018554688,0.4428711,-4.8828125E-4,0.8964844
17/07/11 05:07:01:766,42,-0.75512695,0.030517578,0.5788574,-0.03511943,-0.04576168,0.0063853506,0.018554688,0.4428711,-4.8828125E-4,0.8964844
17/07/11 05:07:01:771,47,-0.7585449,0.033447266,0.5739746,-0.034055203,-0.04576168,0.0063853506,0.018554688,0.4428711,-4.8828125E-4,0.8964844
17/07/11 05:07:01:777,53,-0.7585449,0.033447266,0.5739746,-0.034055203,-0.04576168,0.0063853506,0.018554688,0.4428711,-4.8828125E-4,0.8964844
17/07/11 05:07:01:786,62,-0.7585449,0.033447266,0.5739746,-0.034055203,-0.04576168,0.0063853506,0.018554688,0.4428711,-4.8828125E-4,0.8964844
17/07/11 05:07:01:792,68,-0.7585449,0.033447266,0.5739746,-0.034055203,-0.04576168,0.0063853506,0.018554688,0.4428711,-4.8828125E-4,0.8964844
17/07/11 05:07:01:796,72,-0.7585449,0.033447266,0.5739746,-0.034055203,-0.04576168,0.0063853506,0.018554688,0.4428711,-4.8828125E-4,0.8964844
17/07/11 05:07:01:801,77,-0.75341797,0.032714844,0.57666016,-0.036183655,-0.04576168,0.0053211255,0.018066406,0.4423828,-4.8828125E-4,0.8964844
17/07/11 05:07:01:806,82,-0.7607422,0.033691406,0.57910156,-0.037247878,-0.04576168,0.0063853506,0.01953125,0.4423828,0.0,0.8964844
17/07/11 05:07:01:826,102,-0.7590332,0.03149414,0.57788086,-0.03511943,-0.04576168,0.0053211255,0.01953125,0.4428711,0.0,0.8959961
17/07/11 05:07:01:832,108,-0.7590332,0.03149414,0.57788086,-0.03511943,-0.04576168,0.0053211255,0.01953125,0.4428711,0.0,0.8959961
17/07/11 05:07:01:837,113,-0.7590332,0.03149414,0.57788086,-0.03511943,-0.04576168,0.0053211255,0.01953125,0.4428711,0.0,0.8959961
17/07/11 05:07:01:842,118,-0.7590332,0.03149414,0.57788086,-0.03511943,-0.04576168,0.0053211255,0.01953125,0.4428711,0.0,0.8959961
17/07/11 05:07:01:847,123,-0.7590332,0.03149414,0.57788086,-0.03511943,-0.04576168,0.0053211255,0.01953125,0.4428711,0.0,0.8959961
17/07/11 05:07:01:856,132,-0.7561035,0.030517578,0.58154297,-0.03511943,-0.04576168,0.0063853506,0.018554688,0.4428711,-4.8828125E-4,0.8959961
17/07/11 05:07:01:861,137,-0.7561035,0.030517578,0.58154297,-0.03511943,-0.04576168,0.0063853506,0.018554688,0.4428711,-4.8828125E-4,0.8959961
17/07/11 05:07:01:866,142,-0.7561035,0.030517578,0.58154297,-0.03511943,-0.04576168,0.0063853506,0.018554688,0.4428711,-4.8828125E-4,0.8959961
17/07/11 05:07:01:872,148,-0.7561035,0.030517578,0.58154297,-0.03511943,-0.04576168,0.0063853506,0.018554688,0.4428711,-4.8828125E-4,0.8959961
17/07/11 05:07:01:877,153,-0.7561035,0.030517578,0.58154297,-0.03511943,-0.04576168,0.0063853506,0.018554688,0.4428711,-4.8828125E-4,0.8959961
17/07/11 05:07:01:883,159,-0.7561035,0.030517578,0.58154297,-0.03511943,-0.04576168,0.0063853506,0.018554688,0.4428711,-4.8828125E-4,0.8959961
17/07/11 05:07:01:888,164,-0.7561035,0.030517578,0.58154297,-0.03511943,-0.04576168,0.0063853506,0.018554688,0.4428711,-4.8828125E-4,0.8959961
17/07/11 05:07:01:893,169,-0.7561035,0.030517578,0.58154297,-0.03511943,-0.04576168,0.0063853506,0.018554688,0.4428711,-4.8828125E-4,0.8959961
17/07/11 05:07:01:898,174,-0.7561035,0.030517578,0.58154297,-0.03511943,-0.04576168,0.0063853506,0.018554688,0.4428711,-4.8828125E-4,0.8959961
17/07/11 05:07:01:906,182,-0.7565918,0.033203125,0.57910156,-0.03511943,-0.046825904,0.0053211255,0.018554688,0.4423828,0.0,0.8964844
17/07/11 05:07:01:914,190,-0.7585449,0.034423828,0.5751953,-0.03511943,-0.046825904,0.0063853506,0.01953125,0.4423828,0.0,0.8964844
17/07/11 05:07:01:926,202,-0.76049805,0.032470703,0.5751953,-0.03511943,-0.04576168,0.0074495757,0.01953125,0.4428711,0.0,0.8959961
17/07/11 05:07:01:955,231,-0.7541504,0.028076172,0.5793457,-0.03511943,-0.04576168,0.0074495757,0.01953125,0.4428711,0.0,0.8959961
17/07/11 05:07:01:960,236,-0.7536621,0.033447266,0.578125,-0.03511943,-0.04576168,0.0063853506,0.01953125,0.44335938,0.0,0.8959961
17/07/11 05:07:01:965,241,-0.7536621,0.033447266,0.578125,-0.03511943,-0.04576168,0.0063853506,0.01953125,0.44335938,0.0,0.8959961
17/07/11 05:07:01:970,246,-0.75805664,0.033935547,0.57543945,-0.036183655,-0.04576168,0.0063853506,0.01953125,0.4428711,0.0,0.8959961
17/07/11 05:07:01:975,251,-0.75805664,0.033935547,0.57543945,-0.036183655,-0.04576168,0.0063853506,0.01953125,0.4428711,0.0,0.8959961
17/07/11 05:07:01:981,257,-0.75561523,0.03491211,0.576416,-0.03511943,-0.044697456,0.0063853506,0.01953125,0.44335938,0.0,0.8959961
17/07/11 05:07:01:986,262,-0.75561523,0.03491211,0.576416,-0.03511943,-0.044697456,0.0063853506,0.01953125,0.44335938,0.0,0.8959961
17/07/11 05:07:01:991,267,-0.75561523,0.03491211,0.576416,-0.03511943,-0.044697456,0.0063853506,0.01953125,0.44335938,0.0,0.8959961
17/07/11 05:07:01:996,272,-0.75561523,0.03491211,0.576416,-0.03511943,-0.044697456,0.0063853506,0.01953125,0.44335938,0.0,0.8959961
17/07/11 05:07:02:001,277,-0.75561523,0.03491211,0.576416,-0.03511943,-0.044697456,0.0063853506,0.01953125,0.44335938,0.0,0.8959961
17/07/11 05:07:02:026,302,-0.75561523,0.03491211,0.576416,-0.03511943,-0.044697456,0.0063853506,0.01953125,0.44335938,0.0,0.8959961
17/07/11 05:07:02:031,307,-0.75561523,0.03491211,0.576416,-0.03511943,-0.044697456,0.0063853506,0.01953125,0.44335938,0.0,0.8959961
17/07/11 05:07:02:036,312,-0.75561523,0.03491211,0.576416,-0.03511943,-0.044697456,0.0063853506,0.01953125,0.44335938,0.0,0.8959961
17/07/11 05:07:02:042,318,-0.76220703,0.031982422,0.5756836,-0.03511943,-0.04576168,0.0074495757,0.020019531,0.4428711,0.0,0.8959961
17/07/11 05:07:02:048,324,-0.76220703,0.031982422,0.5756836,-0.03511943,-0.04576168,0.0074495757,0.020019531,0.4428711,0.0,0.8959961
17/07/11 05:07:02:054,330,-0.76220703,0.031982422,0.5756836,-0.03511943,-0.04576168,0.0074495757,0.020019531,0.4428711,0.0,0.8959961
17/07/11 05:07:02:059,335,-0.76220703,0.031982422,0.5756836,-0.03511943,-0.04576168,0.0074495757,0.020019531,0.4428711,0.0,0.8959961
17/07/11 05:07:02:065,341,-0.76220703,0.031982422,0.5756836,-0.03511943,-0.04576168,0.0074495757,0.020019531,0.4428711,0.0,0.8959961
17/07/11 05:07:02:071,347,-0.76220703,0.031982422,0.5756836,-0.03511943,-0.04576168,0.0074495757,0.020019531,0.4428711,0.0,0.8959961
17/07/11 05:07:02:076,352,-0.76220703,0.031982422,0.5756836,-0.03511943,-0.04576168,0.0074495757,0.020019531,0.4428711,0.0,0.8959961
17/07/11 05:07:02:081,357,-0.76220703,0.031982422,0.5756836,-0.03511943,-0.04576168,0.0074495757,0.020019531,0.4428711,0.0,0.8959961
17/07/11 05:07:02:086,362,-0.76220703,0.031982422,0.5756836,-0.03511943,-0.04576168,0.0074495757,0.020019531,0.4428711,0.0,0.8959961
17/07/11 05:07:02:091,367,-0.76220703,0.031982422,0.5756836,-0.03511943,-0.04576168,0.0074495757,0.020019531,0.4428711,0.0,0.8959961
17/07/11 05:07:02:097,373,-0.7561035,0.033203125,0.57836914,-0.03511943,-0.04576168,0.0074495757,0.019042969,0.44335938,0.0,0.8959961
17/07/11 05:07:02:102,378,-0.7529297,0.03125,0.5786133,-0.03511943,-0.04576168,0.0063853506,0.018554688,0.4428711,0.0,0.8959961
17/07/11 05:07:02:108,384,-0.7529297,0.03125,0.5786133,-0.03511943,-0.04576168,0.0063853506,0.018554688,0.4428711,0.0,0.8959961
17/07/11 05:07:02:113,389,-0.7529297,0.03125,0.5786133,-0.03511943,-0.04576168,0.0063853506,0.018554688,0.4428711,0.0,0.8959961
17/07/11 05:07:02:118,394,-0.7529297,0.03125,0.5786133,-0.03511943,-0.04576168,0.0063853506,0.018554688,0.4428711,0.0,0.8959961
17/07/11 05:07:02:124,400,-0.7561035,0.03125,0.576416,-0.036183655,-0.044697456,0.0063853506,0.018554688,0.4423828,0.0,0.8964844
17/07/11 05:07:02:128,404,-0.7561035,0.03125,0.576416,-0.036183655,-0.044697456,0.0063853506,0.018554688,0.4423828,0.0,0.8964844
17/07/11 05:07:02:134,410,-0.7561035,0.03125,0.576416,-0.036183655,-0.044697456,0.0063853506,0.018554688,0.4423828,0.0,0.8964844
17/07/11 05:07:02:140,416,-0.7561035,0.03125,0.576416,-0.036183655,-0.044697456,0.0063853506,0.018554688,0.4423828,0.0,0.8964844
17/07/11 05:07:02:145,421,-0.7561035,0.03125,0.576416,-0.036183655,-0.044697456,0.0063853506,0.018554688,0.4423828,0.0,0.8964844
17/07/11 05:07:02:150,426,-0.7553711,0.031982422,0.576416,-0.036183655,-0.04576168,0.0074495757,0.018554688,0.4428711,-4.8828125E-4,0.8959961
17/07/11 05:07:02:155,431,-0.7595215,0.03466797,0.5739746,-0.032990977,-0.04576168,0.0074495757,0.018554688,0.44384766,0.0,0.8955078
17/07/11 05:07:02:160,436,-0.7595215,0.03466797,0.5739746,-0.032990977,-0.04576168,0.0074495757,0.018554688,0.44384766,0.0,0.8955078
17/07/11 05:07:02:166,442,-0.7595215,0.03466797,0.5739746,-0.032990977,-0.04576168,0.0074495757,0.018554688,0.44384766,0.0,0.8955078
17/07/11 05:07:02:172,448,-0.7595215,0.03466797,0.5739746,-0.032990977,-0.04576168,0.0074495757,0.018554688,0.44384766,0.0,0.8955078
17/07/11 05:07:02:177,453,-0.7595215,0.03466797,0.5739746,-0.032990977,-0.04576168,0.0074495757,0.018554688,0.44384766,0.0,0.8955078
17/07/11 05:07:02:183,459,-0.7595215,0.03466797,0.5739746,-0.032990977,-0.04576168,0.0074495757,0.018554688,0.44384766,0.0,0.8955078
17/07/11 05:07:02:188,464,-0.7595215,0.03466797,0.5739746,-0.032990977,-0.04576168,0.0074495757,0.018554688,0.44384766,0.0,0.8955078
17/07/11 05:07:02:195,471,-0.7595215,0.03466797,0.5739746,-0.032990977,-0.04576168,0.0074495757,0.018554688,0.44384766,0.0,0.8955078
17/07/11 05:07:02:200,476,-0.7595215,0.03466797,0.5739746,-0.032990977,-0.04576168,0.0074495757,0.018554688,0.44384766,0.0,0.8955078
17/07/11 05:07:02:207,483,-0.7607422,0.034179688,0.5800781,-0.03511943,-0.046825904,0.0063853506,0.019042969,0.4428711,0.0,0.8959961
17/07/11 05:07:02:214,490,-0.7548828,0.034179688,0.5800781,-0.03511943,-0.046825904,0.0063853506,0.019042969,0.44384766,0.0,0.8959961
17/07/11 05:07:02:225,501,-0.7548828,0.034179688,0.5800781,-0.03511943,-0.046825904,0.0063853506,0.019042969,0.44384766,0.0,0.8959961
17/07/11 05:07:02:230,506,-0.7548828,0.034179688,0.5800781,-0.03511943,-0.046825904,0.0063853506,0.019042969,0.44384766,0.0,0.8959961
17/07/11 05:07:02:235,511,-0.7548828,0.034179688,0.5800781,-0.03511943,-0.046825904,0.0063853506,0.019042969,0.44384766,0.0,0.8959961
17/07/11 05:07:02:241,517,-0.7548828,0.034179688,0.5800781,-0.03511943,-0.046825904,0.0063853506,0.019042969,0.44384766,0.0,0.8959961
17/07/11 05:07:02:246,522,-0.7548828,0.034179688,0.5800781,-0.03511943,-0.046825904,0.0063853506,0.019042969,0.44384766,0.0,0.8959961
17/07/11 05:07:02:251,527,-0.7548828,0.034179688,0.5800781,-0.03511943,-0.046825904,0.0063853506,0.019042969,0.44384766,0.0,0.8959961
17/07/11 05:07:02:256,532,-0.7548828,0.034179688,0.5800781,-0.03511943,-0.046825904,0.0063853506,0.019042969,0.44384766,0.0,0.8959961
17/07/11 05:07:02:262,538,-0.75512695,0.032226563,0.5756836,-0.037247878,-0.04576168,0.0063853506,0.019042969,0.4428711,0.0,0.8959961
17/07/11 05:07:02:267,543,-0.75512695,0.032226563,0.5756836,-0.037247878,-0.04576168,0.0063853506,0.019042969,0.4428711,0.0,0.8959961
17/07/11 05:07:02:272,548,-0.75512695,0.032226563,0.5756836,-0.037247878,-0.04576168,0.0063853506,0.019042969,0.4428711,0.0,0.8959961
17/07/11 05:07:02:278,554,-0.75512695,0.032226563,0.5756836,-0.037247878,-0.04576168,0.0063853506,0.019042969,0.4428711,0.0,0.8959961
17/07/11 05:07:02:283,559,-0.75512695,0.032226563,0.5756836,-0.037247878,-0.04576168,0.0063853506,0.019042969,0.4428711,0.0,0.8959961
17/07/11 05:07:02:290,566,-0.75512695,0.032226563,0.5756836,-0.037247878,-0.04576168,0.0063853506,0.019042969,0.4428711,0.0,0.8959961
17/07/11 05:07:02:295,571,-0.75512695,0.032226563,0.5756836,-0.037247878,-0.04576168,0.0063853506,0.019042969,0.4428711,0.0,0.8959961
17/07/11 05:07:02:300,576,-0.75512695,0.032226563,0.5756836,-0.037247878,-0.04576168,0.0063853506,0.019042969,0.4428711,0.0,0.8959961
17/07/11 05:07:02:306,582,-0.75512695,0.032226563,0.5756836,-0.037247878,-0.04576168,0.0063853506,0.019042969,0.4428711,0.0,0.8959961
17/07/11 05:07:02:311,587,-0.75512695,0.032226563,0.5756836,-0.037247878,-0.04576168,0.0063853506,0.019042969,0.4428711,0.0,0.8959961
17/07/11 05:07:02:316,592,-0.75512695,0.032226563,0.5756836,-0.037247878,-0.04576168,0.0063853506,0.019042969,0.4428711,0.0,0.8959961
17/07/11 05:07:02:321,597,-0.75512695,0.032226563,0.5756836,-0.037247878,-0.04576168,0.0063853506,0.019042969,0.4428711,0.0,0.8959961
17/07/11 05:07:02:326,602,-0.75512695,0.032226563,0.5756836,-0.037247878,-0.04576168,0.0063853506,0.019042969,0.4428711,0.0,0.8959961
17/07/11 05:07:02:332,608,-0.75512695,0.032226563,0.5756836,-0.037247878,-0.04576168,0.0063853506,0.019042969,0.4428711,0.0,0.8959961
17/07/11 05:07:02:337,613,-0.7553711,0.03173828,0.58032227,-0.03511943,-0.044697456,0.0063853506,0.019042969,0.4423828,0.0,0.8964844
17/07/11 05:07:02:342,618,-0.7553711,0.03173828,0.58032227,-0.03511943,-0.044697456,0.0063853506,0.019042969,0.4423828,0.0,0.8964844
17/07/11 05:07:02:347,623,-0.7553711,0.03173828,0.58032227,-0.03511943,-0.044697456,0.0063853506,0.019042969,0.4423828,0.0,0.8964844
17/07/11 05:07:02:352,628,-0.7553711,0.03173828,0.58032227,-0.03511943,-0.044697456,0.0063853506,0.019042969,0.4423828,0.0,0.8964844
17/07/11 05:07:02:360,636,-0.7553711,0.03173828,0.58032227,-0.03511943,-0.044697456,0.0063853506,0.019042969,0.4423828,0.0,0.8964844
17/07/11 05:07:02:365,641,-0.7553711,0.03173828,0.58032227,-0.03511943,-0.044697456,0.0063853506,0.019042969,0.4423828,0.0,0.8964844
17/07/11 05:07:02:370,646,-0.7553711,0.03173828,0.58032227,-0.03511943,-0.044697456,0.0063853506,0.019042969,0.4423828,0.0,0.8964844
17/07/11 05:07:02:375,651,-0.7553711,0.03173828,0.58032227,-0.03511943,-0.044697456,0.0063853506,0.019042969,0.4423828,0.0,0.8964844
17/07/11 05:07:02:380,656,-0.7553711,0.03173828,0.58032227,-0.03511943,-0.044697456,0.0063853506,0.019042969,0.4423828,0.0,0.8964844
17/07/11 05:07:02:385,661,-0.7553711,0.03173828,0.58032227,-0.03511943,-0.044697456,0.0063853506,0.019042969,0.4423828,0.0,0.8964844
17/07/11 05:07:02:391,667,-0.7536621,0.032958984,0.57592773,-0.034055203,-0.046825904,0.0053211255,0.01953125,0.44384766,0.0,0.8955078
17/07/11 05:07:02:396,672,-0.75805664,0.030029297,0.5744629,-0.036183655,-0.044697456,0.0053211255,0.01953125,0.44335938,0.0,0.8959961
17/07/11 05:07:02:401,677,-0.75805664,0.030029297,0.5744629,-0.036183655,-0.044697456,0.0053211255,0.01953125,0.44335938,0.0,0.8959961
17/07/11 05:07:02:406,682,-0.75805664,0.030029297,0.5744629,-0.036183655,-0.044697456,0.0053211255,0.01953125,0.44335938,0.0,0.8959961
17/07/11 05:07:02:411,687,-0.76293945,0.03466797,0.57543945,-0.036183655,-0.044697456,0.0063853506,0.01953125,0.44335938,0.0,0.8959961
17/07/11 05:07:02:416,692,-0.7531738,0.03857422,0.57470703,-0.034055203,-0.04576168,0.0074495757,0.018554688,0.44433594,-4.8828125E-4,0.8955078
17/07/11 05:07:02:421,697,-0.765625,0.041992188,0.579834,-0.036183655,-0.04576168,0.0074495757,0.019042969,0.44384766,0.0,0.8955078
17/07/11 05:07:02:426,702,-0.765625,0.041992188,0.579834,-0.036183655,-0.04576168,0.0074495757,0.019042969,0.44384766,0.0,0.8955078
17/07/11 05:07:02:431,707,-0.75805664,0.036865234,0.57421875,-0.036183655,-0.04576168,0.0053211255,0.01953125,0.44384766,0.0,0.8955078
17/07/11 05:07:02:436,712,-0.7558594,0.029296875,0.5773926,-0.037247878,-0.04576168,0.0053211255,0.020507813,0.44433594,0.0,0.8955078
17/07/11 05:07:02:447,723,-0.75756836,0.03100586,0.5769043,-0.034055203,-0.044697456,0.0074495757,0.020019531,0.44384766,0.0,0.8955078
17/07/11 05:07:02:453,729,-0.7578125,0.029785156,0.58251953,-0.037247878,-0.044697456,0.0053211255,0.019042969,0.44384766,0.0,0.8955078
17/07/11 05:07:02:461,737,-0.7578125,0.029785156,0.58251953,-0.037247878,-0.044697456,0.0053211255,0.019042969,0.44384766,0.0,0.8955078
17/07/11 05:07:02:467,743,-0.7578125,0.029785156,0.58251953,-0.037247878,-0.044697456,0.0053211255,0.019042969,0.44384766,0.0,0.8955078
17/07/11 05:07:02:472,748,-0.7578125,0.029785156,0.58251953,-0.037247878,-0.044697456,0.0053211255,0.019042969,0.44384766,0.0,0.8955078
17/07/11 05:07:02:477,753,-0.7578125,0.029785156,0.58251953,-0.037247878,-0.044697456,0.0053211255,0.019042969,0.44384766,0.0,0.8955078
17/07/11 05:07:02:482,758,-0.7578125,0.029785156,0.58251953,-0.037247878,-0.044697456,0.0053211255,0.019042969,0.44384766,0.0,0.8955078
17/07/11 05:07:02:488,764,-0.7578125,0.029785156,0.58251953,-0.037247878,-0.044697456,0.0053211255,0.019042969,0.44384766,0.0,0.8955078
17/07/11 05:07:02:494,770,-0.7458496,0.030517578,0.5800781,-0.03511943,-0.044697456,0.0042569004,0.018554688,0.44335938,0.0,0.8959961
17/07/11 05:07:02:501,777,-0.7597656,0.030517578,0.57836914,-0.036183655,-0.04576168,0.0053211255,0.017578125,0.44189453,-4.8828125E-4,0.8964844
17/07/11 05:07:02:506,782,-0.7548828,0.032226563,0.5756836,-0.034055203,-0.04576168,0.0063853506,0.017578125,0.4423828,-4.8828125E-4,0.8964844
17/07/11 05:07:02:511,787,-0.7548828,0.032226563,0.5756836,-0.034055203,-0.04576168,0.0063853506,0.017578125,0.4423828,-4.8828125E-4,0.8964844
17/07/11 05:07:02:516,792,-0.7548828,0.032226563,0.5756836,-0.034055203,-0.04576168,0.0063853506,0.017578125,0.4423828,-4.8828125E-4,0.8964844
17/07/11 05:07:02:521,797,-0.75341797,0.034423828,0.5776367,-0.034055203,-0.044697456,0.0063853506,0.018554688,0.4428711,-4.8828125E-4,0.8959961
17/07/11 05:07:02:526,802,-0.75341797,0.034423828,0.5776367,-0.034055203,-0.044697456,0.0063853506,0.018554688,0.4428711,-4.8828125E-4,0.8959961
17/07/11 05:07:02:531,807,-0.75341797,0.034423828,0.5776367,-0.034055203,-0.044697456,0.0063853506,0.018554688,0.4428711,-4.8828125E-4,0.8959961
17/07/11 05:07:02:536,812,-0.75341797,0.034423828,0.5776367,-0.034055203,-0.044697456,0.0063853506,0.018554688,0.4428711,-4.8828125E-4,0.8959961
17/07/11 05:07:02:541,817,-0.75341797,0.034423828,0.5776367,-0.034055203,-0.044697456,0.0063853506,0.018554688,0.4428711,-4.8828125E-4,0.8959961
17/07/11 05:07:02:546,822,-0.75341797,0.034423828,0.5776367,-0.034055203,-0.044697456,0.0063853506,0.018554688,0.4428711,-4.8828125E-4,0.8959961
17/07/11 05:07:02:551,827,-0.7546387,0.03466797,0.57788086,-0.036183655,-0.044697456,0.0063853506,0.019042969,0.4423828,0.0,0.8964844
17/07/11 05:07:02:556,832,-0.75512695,0.029296875,0.58081055,-0.03511943,-0.044697456,0.0063853506,0.019042969,0.4423828,0.0,0.8964844
17/07/11 05:07:02:561,837,-0.7590332,0.031982422,0.5788574,-0.03511943,-0.044697456,0.0063853506,0.019042969,0.4423828,0.0,0.8964844
17/07/11 05:07:02:567,843,-0.7590332,0.031982422,0.5788574,-0.036183655,-0.044697456,0.0053211255,0.018554688,0.4423828,-4.8828125E-4,0.8964844
17/07/11 05:07:02:573,849,-0.7590332,0.031982422,0.5788574,-0.036183655,-0.044697456,0.0053211255,0.018554688,0.4423828,-4.8828125E-4,0.8964844
17/07/11 05:07:02:578,854,-0.7590332,0.031982422,0.5788574,-0.036183655,-0.044697456,0.0053211255,0.018554688,0.4423828,-4.8828125E-4,0.8964844
17/07/11 05:07:02:584,860,-0.7590332,0.031982422,0.5788574,-0.036183655,-0.044697456,0.0053211255,0.018554688,0.4423828,-4.8828125E-4,0.8964844
17/07/11 05:07:02:590,866,-0.7590332,0.031982422,0.5788574,-0.036183655,-0.044697456,0.0053211255,0.018554688,0.4423828,-4.8828125E-4,0.8964844
17/07/11 05:07:02:595,871,-0.7590332,0.031982422,0.5788574,-0.036183655,-0.044697456,0.0053211255,0.018554688,0.4423828,-4.8828125E-4,0.8964844
17/07/11 05:07:02:600,876,-0.7590332,0.031982422,0.5788574,-0.036183655,-0.044697456,0.0053211255,0.018554688,0.4423828,-4.8828125E-4,0.8964844
17/07/11 05:07:02:606,882,-0.7590332,0.031982422,0.5788574,-0.036183655,-0.044697456,0.0053211255,0.018554688,0.4423828,-4.8828125E-4,0.8964844
17/07/11 05:07:02:611,887,-0.7590332,0.031982422,0.5788574,-0.036183655,-0.044697456,0.0053211255,0.018554688,0.4423828,-4.8828125E-4,0.8964844
17/07/11 05:07:02:617,893,-0.7590332,0.031982422,0.5788574,-0.036183655,-0.044697456,0.0053211255,0.018554688,0.4423828,-4.8828125E-4,0.8964844
17/07/11 05:07:02:622,898,-0.7531738,0.03173828,0.5756836,-0.03511943,-0.044697456,0.0053211255,0.018554688,0.4428711,0.0,0.8964844
17/07/11 05:07:02:627,903,-0.7531738,0.03173828,0.5756836,-0.03511943,-0.044697456,0.0053211255,0.018554688,0.4428711,0.0,0.8964844
17/07/11 05:07:02:633,909,-0.7531738,0.03173828,0.5756836,-0.03511943,-0.044697456,0.0053211255,0.018554688,0.4428711,0.0,0.8964844
17/07/11 05:07:02:638,914,-0.7531738,0.03173828,0.5756836,-0.03511943,-0.044697456,0.0053211255,0.018554688,0.4428711,0.0,0.8964844
17/07/11 05:07:02:644,920,-0.7531738,0.03173828,0.5756836,-0.03511943,-0.044697456,0.0053211255,0.018554688,0.4428711,0.0,0.8964844
17/07/11 05:07:02:649,925,-0.7531738,0.03173828,0.5756836,-0.03511943,-0.044697456,0.0053211255,0.018554688,0.4428711,0.0,0.8964844
17/07/11 05:07:02:654,930,-0.7531738,0.03173828,0.5756836,-0.03511943,-0.044697456,0.0053211255,0.018554688,0.4428711,0.0,0.8964844
17/07/11 05:07:02:659,935,-0.7531738,0.03173828,0.5756836,-0.03511943,-0.044697456,0.0053211255,0.018554688,0.4428711,0.0,0.8964844
17/07/11 05:07:02:664,940,-0.7531738,0.03173828,0.5756836,-0.03511943,-0.044697456,0.0053211255,0.018554688,0.4428711,0.0,0.8964844
17/07/11 05:07:02:669,945,-0.7531738,0.03173828,0.5756836,-0.03511943,-0.044697456,0.0053211255,0.018554688,0.4428711,0.0,0.8964844
17/07/11 05:07:02:678,954,-0.75756836,0.032470703,0.57666016,-0.03511943,-0.04576168,0.0063853506,0.020019531,0.4423828,0.0,0.8964844
17/07/11 05:07:02:683,959,-0.75756836,0.032470703,0.57666016,-0.03511943,-0.04576168,0.0063853506,0.020019531,0.4423828,0.0,0.8964844
17/07/11 05:07:02:688,964,-0.75756836,0.032470703,0.57666016,-0.03511943,-0.04576168,0.0063853506,0.020019531,0.4423828,0.0,0.8964844
17/07/11 05:07:02:694,970,-0.75756836,0.032470703,0.57666016,-0.03511943,-0.04576168,0.0063853506,0.020019531,0.4423828,0.0,0.8964844
17/07/11 05:07:02:700,976,-0.7583008,0.03564453,0.5749512,-0.03511943,-0.04576168,0.0074495757,0.01953125,0.4428711,0.0,0.8959961
17/07/11 05:07:02:706,982,-0.7583008,0.03564453,0.5749512,-0.03511943,-0.04576168,0.0074495757,0.01953125,0.4428711,0.0,0.8959961
17/07/11 05:07:02:711,987,-0.7583008,0.03564453,0.5749512,-0.03511943,-0.04576168,0.0074495757,0.01953125,0.4428711,0.0,0.8959961
17/07/11 05:07:02:717,993,-0.7583008,0.03564453,0.5749512,-0.03511943,-0.04576168,0.0074495757,0.01953125,0.4428711,0.0,0.8959961
17/07/11 05:07:02:723,999,-0.7583008,0.03564453,0.5749512,-0.03511943,-0.04576168,0.0074495757,0.01953125,0.4428711,0.0,0.8959961
17/07/11 05:07:02:728,1004,-0.7590332,0.032958984,0.57250977,-0.036183655,-0.044697456,0.0063853506,0.019042969,0.44335938,0.0,0.8959961
17/07/11 05:07:02:735,1011,-0.7590332,0.032958984,0.57250977,-0.036183655,-0.044697456,0.0063853506,0.019042969,0.44335938,0.0,0.8959961
17/07/11 05:07:02:740,1016,-0.7590332,0.032958984,0.57250977,-0.036183655,-0.044697456,0.0063853506,0.019042969,0.44335938,0.0,0.8959961
17/07/11 05:07:02:745,1021,-0.7590332,0.032958984,0.57250977,-0.036183655,-0.044697456,0.0063853506,0.019042969,0.44335938,0.0,0.8959961
17/07/11 05:07:02:750,1026,-0.7590332,0.032958984,0.57250977,-0.036183655,-0.044697456,0.0063853506,0.019042969,0.44335938,0.0,0.8959961
17/07/11 05:07:02:756,1032,-0.7590332,0.032958984,0.57250977,-0.036183655,-0.044697456,0.0063853506,0.019042969,0.44335938,0.0,0.8959961
17/07/11 05:07:02:762,1038,-0.7590332,0.032958984,0.57250977,-0.036183655,-0.044697456,0.0063853506,0.019042969,0.44335938,0.0,0.8959961
17/07/11 05:07:02:767,1043,-0.7590332,0.032958984,0.57250977,-0.036183655,-0.044697456,0.0063853506,0.019042969,0.44335938,0.0,0.8959961
17/07/11 05:07:02:774,1050,-0.75634766,0.03149414,0.5749512,-0.03511943,-0.04363323,0.0042569004,0.019042969,0.44335938,0.0,0.8959961
17/07/11 05:07:02:779,1055,-0.76049805,0.03540039,0.579834,-0.034055203,-0.04576168,0.0063853506,0.019042969,0.44335938,0.0,0.8959961
17/07/11 05:07:02:785,1061,-0.76049805,0.03540039,0.579834,-0.034055203,-0.04576168,0.0063853506,0.019042969,0.44335938,0.0,0.8959961
17/07/11 05:07:02:791,1067,-0.7541504,0.03173828,0.5773926,-0.036183655,-0.044697456,0.0053211255,0.01953125,0.44335938,0.0,0.8959961
17/07/11 05:07:02:796,1072,-0.76171875,0.033203125,0.5756836,-0.036183655,-0.044697456,0.0063853506,0.01953125,0.44335938,0.0,0.8959961
17/07/11 05:07:02:801,1077,-0.76171875,0.033203125,0.5756836,-0.036183655,-0.044697456,0.0063853506,0.019042969,0.4428711,0.0,0.8959961
17/07/11 05:07:02:807,1083,-0.7585449,0.033691406,0.5788574,-0.03511943,-0.04576168,0.0063853506,0.019042969,0.44335938,0.0,0.8959961
17/07/11 05:07:02:816,1092,-0.7573242,0.030517578,0.5788574,-0.03511943,-0.04576168,0.0063853506,0.01953125,0.4428711,0.0,0.8959961
17/07/11 05:07:02:824,1100,-0.7573242,0.030517578,0.5788574,-0.03511943,-0.04576168,0.0063853506,0.01953125,0.4428711,0.0,0.8959961
17/07/11 05:07:02:829,1105,-0.75683594,0.031982422,0.5744629,-0.03511943,-0.044697456,0.0053211255,0.019042969,0.4428711,0.0,0.8959961
17/07/11 05:07:02:835,1111,-0.75683594,0.031982422,0.5744629,-0.03511943,-0.044697456,0.0053211255,0.019042969,0.4428711,0.0,0.8959961
17/07/11 05:07:02:841,1117,-0.75927734,0.03149414,0.578125,-0.03511943,-0.04576168,0.0053211255,0.018554688,0.44335938,0.0,0.8959961
17/07/11 05:07:02:846,1122,-0.75634766,0.034179688,0.57177734,-0.034055203,-0.044697456,0.0063853506,0.018066406,0.44335938,-4.8828125E-4,0.8959961
17/07/11 05:07:02:852,1128,-0.75634766,0.034179688,0.57177734,-0.034055203,-0.044697456,0.0063853506,0.018066406,0.44335938,-4.8828125E-4,0.8959961
17/07/11 05:07:02:857,1133,-0.75634766,0.034179688,0.57177734,-0.034055203,-0.044697456,0.0063853506,0.018066406,0.44335938,-4.8828125E-4,0.8959961
17/07/11 05:07:02:865,1141,-0.75634766,0.034179688,0.57177734,-0.034055203,-0.044697456,0.0063853506,0.018066406,0.44335938,-4.8828125E-4,0.8959961
17/07/11 05:07:02:870,1146,-0.75634766,0.034179688,0.57177734,-0.034055203,-0.044697456,0.0063853506,0.018066406,0.44335938,-4.8828125E-4,0.8959961
17/07/11 05:07:02:875,1151,-0.75634766,0.034179688,0.57177734,-0.034055203,-0.044697456,0.0063853506,0.018066406,0.44335938,-4.8828125E-4,0.8959961
17/07/11 05:07:02:880,1156,-0.75634766,0.034179688,0.57177734,-0.034055203,-0.044697456,0.0063853506,0.018066406,0.44335938,-4.8828125E-4,0.8959961
17/07/11 05:07:02:887,1163,-0.75805664,0.03125,0.5776367,-0.034055203,-0.046825904,0.0063853506,0.018554688,0.44384766,0.0,0.8955078
17/07/11 05:07:02:901,1177,-0.75756836,0.033691406,0.5769043,-0.034055203,-0.04576168,0.0074495757,0.018554688,0.44384766,-4.8828125E-4,0.8955078
17/07/11 05:07:02:906,1182,-0.75390625,0.033691406,0.57543945,-0.03511943,-0.04576168,0.0063853506,0.019042969,0.44384766,0.0,0.8959961
17/07/11 05:07:02:911,1187,-0.75390625,0.033691406,0.57543945,-0.03511943,-0.04576168,0.0063853506,0.019042969,0.44384766,0.0,0.8959961
17/07/11 05:07:02:916,1192,-0.75390625,0.033691406,0.57543945,-0.03511943,-0.04576168,0.0063853506,0.019042969,0.44384766,0.0,0.8959961
17/07/11 05:07:02:921,1197,-0.75390625,0.033691406,0.57543945,-0.03511943,-0.04576168,0.0063853506,0.019042969,0.44384766,0.0,0.8959961
17/07/11 05:07:02:926,1202,-0.75390625,0.033691406,0.57543945,-0.03511943,-0.04576168,0.0063853506,0.019042969,0.44384766,0.0,0.8959961
17/07/11 05:07:02:931,1207,-0.75390625,0.033691406,0.57543945,-0.03511943,-0.04576168,0.0063853506,0.019042969,0.44384766,0.0,0.8959961
17/07/11 05:07:02:937,1213,-0.7570801,0.030517578,0.5800781,-0.03511943,-0.044697456,0.0053211255,0.01953125,0.4428711,0.0,0.8959961
17/07/11 05:07:02:952,1228,-0.7570801,0.030517578,0.5800781,-0.03511943,-0.044697456,0.0053211255,0.01953125,0.4428711,0.0,0.8959961
17/07/11 05:07:02:965,1241,-0.7570801,0.030517578,0.5800781,-0.03511943,-0.044697456,0.0053211255,0.01953125,0.4428711,0.0,0.8959961
17/07/11 05:07:02:970,1246,-0.7570801,0.030517578,0.5800781,-0.03511943,-0.044697456,0.0053211255,0.01953125,0.4428711,0.0,0.8959961
17/07/11 05:07:02:976,1252,-0.75634766,0.03173828,0.57910156,-0.03511943,-0.044697456,0.0074495757,0.01953125,0.4428711,0.0,0.8959961
17/07/11 05:07:02:981,1257,-0.78125,0.051513672,0.58740234,-0.034055203,-0.044697456,0.009578026,0.018066406,0.4428711,-4.8828125E-4,0.8964844
17/07/11 05:07:02:987,1263,-0.78125,0.051513672,0.58740234,-0.034055203,-0.044697456,0.009578026,0.018066406,0.4428711,-4.8828125E-4,0.8964844
17/07/11 05:07:02:993,1269,-0.67456055,-0.040039063,0.57958984,-0.040440552,-0.041504778,-0.0,0.020019531,0.44335938,0.0,0.8959961
17/07/11 05:07:02:999,1275,-0.8798828,0.07373047,0.5517578,-0.024477176,-0.034055203,0.027669853,0.0146484375,0.43945313,-0.001953125,0.8979492
17/07/11 05:07:03:004,1280,-0.8798828,0.07373047,0.5517578,-0.024477176,-0.034055203,0.027669853,0.0146484375,0.43945313,-0.001953125,0.8979492
17/07/11 05:07:03:011,1287,-0.6364746,0.014404297,0.5559082,-0.038312104,-0.05853238,-0.021284502,0.01953125,0.4501953,0.0,0.8925781
17/07/11 05:07:03:017,1293,-0.6364746,0.014404297,0.5559082,-0.038312104,-0.05853238,-0.021284502,0.01953125,0.4501953,0.0,0.8925781
17/07/11 05:07:03:023,1299,-0.8276367,0.092041016,0.60595703,-0.027669853,-0.046825904,0.024477176,0.017089844,0.43896484,-9.765625E-4,0.8979492
17/07/11 05:07:03:028,1304,-0.79956055,0.1538086,0.5583496,-0.028734077,-0.032990977,0.008513801,0.029296875,0.44482422,0.0043945313,0.89501953
17/07/11 05:07:03:033,1309,-0.79956055,0.1538086,0.5583496,-0.028734077,-0.032990977,0.008513801,0.029296875,0.44482422,0.0043945313,0.89501953
17/07/11 05:07:03:039,1315,-0.68530273,-0.06738281,0.61816406,-0.05640393,-0.05001858,-0.0053211255,0.032714844,0.44580078,0.005859375,0.89404297
17/07/11 05:07:03:044,1320,-0.68530273,-0.06738281,0.61816406,-0.05640393,-0.05001858,-0.0053211255,0.032714844,0.44580078,0.005859375,0.89404297
17/07/11 05:07:03:050,1326,-0.8166504,0.026611328,0.5595703,-0.026605628,-0.036183655,0.018091828,0.021484375,0.43896484,9.765625E-4,0.8979492
17/07/11 05:07:03:056,1332,-0.8166504,0.026611328,0.5595703,-0.026605628,-0.036183655,0.018091828,0.021484375,0.43896484,9.765625E-4,0.8979492
17/07/11 05:07:03:061,1337,-0.7636719,0.025390625,0.5913086,-0.034055203,-0.051082805,-0.0031926753,0.020507813,0.44482422,0.0,0.8955078
17/07/11 05:07:03:066,1342,-0.7636719,0.025390625,0.5913086,-0.034055203,-0.051082805,-0.0031926753,0.020507813,0.44482422,0.0,0.8955078
17/07/11 05:07:03:071,1347,-0.72143555,0.00390625,0.55371094,-0.036183655,-0.05214703,0.0042569004,0.018066406,0.4423828,-4.8828125E-4,0.8964844
17/07/11 05:07:03:076,1352,-0.72143555,0.00390625,0.55371094,-0.036183655,-0.05214703,0.0042569004,0.018066406,0.4423828,-4.8828125E-4,0.8964844
17/07/11 05:07:03:081,1357,-0.72143555,0.00390625,0.55371094,-0.036183655,-0.05214703,0.0042569004,0.018066406,0.4423828,-4.8828125E-4,0.8964844
17/07/11 05:07:03:086,1362,-0.72143555,0.00390625,0.55371094,-0.036183655,-0.05214703,0.0042569004,0.018066406,0.4423828,-4.8828125E-4,0.8964844
17/07/11 05:07:03:092,1368,-0.72143555,0.00390625,0.55371094,-0.036183655,-0.05214703,0.0042569004,0.018066406,0.4423828,-4.8828125E-4,0.8964844
17/07/11 05:07:03:098,1374,-0.7807617,0.11669922,0.55493164,-0.025541402,-0.038312104,0.013834926,0.0146484375,0.4423828,-0.0024414063,0.8964844
17/07/11 05:07:03:106,1382,-0.7807617,0.11669922,0.55493164,-0.025541402,-0.038312104,0.013834926,0.0146484375,0.4423828,-0.0024414063,0.8964844
17/07/11 05:07:03:123,1399,-0.7885742,4.8828125E-4,0.55688477,-0.034055203,-0.05427548,0.010642251,0.016601563,0.4399414,-9.765625E-4,0.89746094
17/07/11 05:07:03:130,1406,-0.7885742,4.8828125E-4,0.55688477,-0.034055203,-0.05427548,0.010642251,0.016601563,0.4399414,-9.765625E-4,0.89746094
17/07/11 05:07:03:136,1412,-0.7885742,4.8828125E-4,0.55688477,-0.034055203,-0.05427548,0.010642251,0.016601563,0.4399414,-9.765625E-4,0.89746094
17/07/11 05:07:03:142,1418,-0.7885742,4.8828125E-4,0.55688477,-0.034055203,-0.05427548,0.010642251,0.016601563,0.4399414,-9.765625E-4,0.89746094
17/07/11 05:07:03:147,1423,-0.7885742,4.8828125E-4,0.55688477,-0.034055203,-0.05427548,0.010642251,0.016601563,0.4399414,-9.765625E-4,0.89746094
17/07/11 05:07:03:155,1431,-0.7512207,0.04711914,0.5917969,-0.03192675,-0.040440552,0.0010642251,0.017578125,0.44384766,-4.8828125E-4,0.8959961
17/07/11 05:07:03:164,1440,-0.76416016,-0.020263672,0.5546875,-0.03192675,-0.040440552,0.0010642251,0.017578125,0.44384766,-4.8828125E-4,0.8959961
17/07/11 05:07:03:174,1450,-0.76416016,-0.020263672,0.5546875,-0.042569004,-0.04789013,0.0053211255,0.018554688,0.4423828,0.0,0.8964844
17/07/11 05:07:03:182,1458,-0.7932129,0.04663086,0.55493164,-0.030862529,-0.042569004,0.011706476,0.015625,0.44384766,-0.0014648438,0.8955078
17/07/11 05:07:03:188,1464,-0.7312012,0.07324219,0.59521484,-0.032990977,-0.048954353,0.0010642251,0.017089844,0.44677734,-9.765625E-4,0.89453125
17/07/11 05:07:03:192,1468,-0.7312012,0.07324219,0.59521484,-0.032990977,-0.048954353,0.0010642251,0.017089844,0.44677734,-9.765625E-4,0.89453125
17/07/11 05:07:03:197,1473,-0.7312012,0.022705078,0.58154297,-0.032990977,-0.048954353,0.0010642251,0.017089844,0.44677734,-9.765625E-4,0.89453125
17/07/11 05:07:03:207,1483,-0.7438965,0.05834961,0.5839844,-0.03192675,-0.038312104,0.0010642251,0.016113281,0.44335938,-0.0014648438,0.8959961
17/07/11 05:07:03:213,1489,-0.7438965,0.05834961,0.5839844,-0.03192675,-0.038312104,0.0010642251,0.016113281,0.44335938,-0.0014648438,0.8959961
17/07/11 05:07:03:218,1494,-0.7507324,-0.0029296875,0.5739746,-0.037247878,-0.051082805,0.0042569004,0.018066406,0.4423828,-4.8828125E-4,0.8964844
17/07/11 05:07:03:229,1505,-0.79589844,0.018798828,0.5505371,-0.03511943,-0.04363323,0.010642251,0.014160156,0.4423828,-0.0024414063,0.8964844
17/07/11 05:07:03:237,1513,-0.73583984,0.052978516,0.59643555,-0.037247878,-0.04363323,0.0010642251,0.014160156,0.4453125,-0.0024414063,0.89501953
17/07/11 05:07:03:242,1518,-0.73583984,0.052978516,0.59643555,-0.037247878,-0.04363323,0.0010642251,0.014160156,0.4453125,-0.0024414063,0.89501953
17/07/11 05:07:03:248,1524,-0.73583984,0.052978516,0.59643555,-0.037247878,-0.04363323,0.0010642251,0.014160156,0.4453125,-0.0024414063,0.89501953
17/07/11 05:07:03:252,1528,-0.73583984,0.052978516,0.59643555,-0.037247878,-0.04363323,0.0010642251,0.014160156,0.4453125,-0.0024414063,0.89501953
17/07/11 05:07:03:257,1533,-0.73583984,0.052978516,0.59643555,-0.037247878,-0.04363323,0.0010642251,0.014160156,0.4453125,-0.0024414063,0.89501953
17/07/11 05:07:03:262,1538,-0.73583984,0.052978516,0.59643555,-0.037247878,-0.04363323,0.0010642251,0.014160156,0.4453125,-0.0024414063,0.89501953
17/07/11 05:07:03:267,1543,-0.73583984,0.052978516,0.59643555,-0.037247878,-0.04363323,0.0010642251,0.014160156,0.4453125,-0.0024414063,0.89501953
17/07/11 05:07:03:272,1548,-0.75512695,0.021972656,0.5805664,-0.03511943,-0.05214703,0.010642251,0.016113281,0.4428711,-0.0014648438,0.8959961
17/07/11 05:07:03:278,1554,-0.7746582,9.765625E-4,0.5546875,-0.03511943,-0.046825904,0.0074495757,0.015136719,0.4423828,-0.001953125,0.8964844
17/07/11 05:07:03:283,1559,-0.7746582,9.765625E-4,0.5546875,-0.03511943,-0.046825904,0.0074495757,0.015136719,0.4423828,-0.001953125,0.8964844
17/07/11 05:07:03:288,1564,-0.74609375,0.044677734,0.5866699,-0.032990977,-0.04363323,0.0042569004,0.014160156,0.44384766,-0.0024414063,0.8959961
17/07/11 05:07:03:293,1569,-0.74609375,0.044677734,0.5866699,-0.032990977,-0.04363323,0.0042569004,0.014160156,0.44384766,-0.0024414063,0.8959961
17/07/11 05:07:03:298,1574,-0.74609375,0.044677734,0.5866699,-0.032990977,-0.04363323,0.0042569004,0.014160156,0.44384766,-0.0024414063,0.8959961
17/07/11 05:07:03:303,1579,-0.74609375,0.044677734,0.5866699,-0.032990977,-0.04363323,0.0042569004,0.014160156,0.44384766,-0.0024414063,0.8959961
17/07/11 05:07:03:310,1586,-0.74609375,0.044677734,0.5866699,-0.032990977,-0.04363323,0.0042569004,0.014160156,0.44384766,-0.0024414063,0.8959961
17/07/11 05:07:03:315,1591,-0.74609375,0.044677734,0.5866699,-0.032990977,-0.04363323,0.0042569004,0.014160156,0.44384766,-0.0024414063,0.8959961
17/07/11 05:07:03:320,1596,-0.7590332,0.012451172,0.579834,-0.040440552,-0.04789013,0.010642251,0.017089844,0.44189453,-9.765625E-4,0.8964844
17/07/11 05:07:03:326,1602,-0.7507324,0.052001953,0.5830078,-0.032990977,-0.04789013,0.0042569004,0.016601563,0.44140625,-9.765625E-4,0.89697266
17/07/11 05:07:03:331,1607,-0.78149414,0.01586914,0.5588379,-0.038312104,-0.04576168,0.009578026,0.017578125,0.44140625,-4.8828125E-4,0.89697266
17/07/11 05:07:03:336,1612,-0.78149414,0.01586914,0.5588379,-0.038312104,-0.04576168,0.009578026,0.017578125,0.44140625,-4.8828125E-4,0.89697266
17/07/11 05:07:03:341,1617,-0.7475586,0.031982422,0.58081055,-0.037247878,-0.040440552,0.0031926753,0.016601563,0.44433594,-9.765625E-4,0.8955078
17/07/11 05:07:03:346,1622,-0.7475586,0.031982422,0.58081055,-0.037247878,-0.040440552,0.0031926753,0.016601563,0.44433594,-9.765625E-4,0.8955078
17/07/11 05:07:03:353,1629,-0.76171875,0.01953125,0.57421875,-0.03511943,-0.05001858,0.009578026,0.017089844,0.4428711,-9.765625E-4,0.8964844
17/07/11 05:07:03:358,1634,-0.7507324,0.040771484,0.5839844,-0.034055203,-0.04576168,0.0042569004,0.016601563,0.44335938,-9.765625E-4,0.8959961
17/07/11 05:07:03:364,1640,-0.7507324,0.040771484,0.5839844,-0.034055203,-0.04576168,0.0042569004,0.016601563,0.44335938,-9.765625E-4,0.8959961
17/07/11 05:07:03:369,1645,-0.7548828,0.061035156,0.5800781,-0.036183655,-0.04363323,0.0053211255,0.017578125,0.4423828,-4.8828125E-4,0.8964844
17/07/11 05:07:03:374,1650,-0.7548828,0.061035156,0.5800781,-0.036183655,-0.04363323,0.0053211255,0.017578125,0.4423828,-4.8828125E-4,0.8964844
17/07/11 05:07:03:379,1655,-0.77124023,0.021728516,0.56103516,-0.036183655,-0.04789013,0.0074495757,0.01953125,0.44189453,0.0,0.8964844
17/07/11 05:07:03:384,1660,-0.77124023,0.021728516,0.56103516,-0.036183655,-0.04789013,0.0074495757,0.01953125,0.44189453,0.0,0.8964844
17/07/11 05:07:03:391,1667,-0.7624512,0.07324219,0.579834,-0.028734077,-0.046825904,0.0063853506,0.017578125,0.44189453,-4.8828125E-4,0.8964844
17/07/11 05:07:03:425,1701,-0.7531738,0.016357422,0.57788086,-0.038312104,-0.040440552,0.0063853506,0.01953125,0.44335938,0.0,0.8959961
17/07/11 05:07:03:440,1716,-0.7531738,0.016357422,0.57788086,-0.038312104,-0.040440552,0.0063853506,0.01953125,0.44335938,0.0,0.8959961
17/07/11 05:07:03:446,1722,-0.7531738,0.016357422,0.57788086,-0.038312104,-0.040440552,0.0063853506,0.01953125,0.44335938,0.0,0.8959961
17/07/11 05:07:03:451,1727,-0.77368164,0.020751953,0.5864258,-0.032990977,-0.044697456,0.009578026,0.019042969,0.44335938,0.0,0.8959961
17/07/11 05:07:03:460,1736,-0.77368164,0.020751953,0.5864258,-0.032990977,-0.044697456,0.009578026,0.019042969,0.44335938,0.0,0.8959961
17/07/11 05:07:03:468,1744,-0.77368164,0.020751953,0.5864258,-0.032990977,-0.044697456,0.009578026,0.019042969,0.44335938,0.0,0.8959961
17/07/11 05:07:03:474,1750,-0.77368164,0.020751953,0.5864258,-0.032990977,-0.044697456,0.009578026,0.019042969,0.44335938,0.0,0.8959961
17/07/11 05:07:03:479,1755,-0.77368164,0.020751953,0.5864258,-0.032990977,-0.044697456,0.009578026,0.019042969,0.44335938,0.0,0.8959961
17/07/11 05:07:03:484,1760,-0.77856445,0.034423828,0.59228516,-0.036183655,-0.05214703,0.0042569004,0.017089844,0.44335938,-9.765625E-4,0.8959961
17/07/11 05:07:03:491,1767,-0.717041,-0.0146484375,0.5974121,-0.042569004,-0.044697456,0.0021284502,0.021484375,0.4423828,9.765625E-4,0.8964844
17/07/11 05:07:03:496,1772,-0.717041,-0.0146484375,0.5974121,-0.042569004,-0.044697456,0.0021284502,0.021484375,0.4423828,9.765625E-4,0.8964844
17/07/11 05:07:03:502,1778,-0.717041,-0.0146484375,0.5974121,-0.042569004,-0.044697456,0.0021284502,0.021484375,0.4423828,9.765625E-4,0.8964844
17/07/11 05:07:03:507,1783,-0.717041,-0.0146484375,0.5974121,-0.042569004,-0.044697456,0.0021284502,0.021484375,0.4423828,9.765625E-4,0.8964844
17/07/11 05:07:03:513,1789,-0.704834,-0.080566406,0.6069336,-0.044697456,-0.03192675,0.008513801,0.021484375,0.4423828,9.765625E-4,0.8964844
17/07/11 05:07:03:518,1794,-0.73413086,0.05493164,0.5703125,-0.03192675,-0.065981954,-0.011706476,0.022460938,0.44921875,0.0014648438,0.8930664
17/07/11 05:07:03:523,1799,-0.73413086,0.05493164,0.5703125,-0.03192675,-0.065981954,-0.011706476,0.022460938,0.44921875,0.0014648438,0.8930664
17/07/11 05:07:03:529,1805,-0.796875,0.12915039,0.5283203,-0.029798303,-0.03511943,0.018091828,0.025878906,0.44384766,0.0029296875,0.8955078
17/07/11 05:07:03:534,1810,-0.796875,0.12915039,0.5283203,-0.029798303,-0.03511943,0.018091828,0.025878906,0.44384766,0.0029296875,0.8955078
17/07/11 05:07:03:539,1815,-0.7590332,0.07397461,0.60595703,-0.044697456,-0.036183655,0.0053211255,0.03125,0.4477539,0.0053710938,0.8935547
17/07/11 05:07:03:544,1820,-0.7590332,0.07397461,0.60595703,-0.044697456,-0.036183655,0.0053211255,0.03125,0.4477539,0.0053710938,0.8935547
17/07/11 05:07:03:550,1826,-0.68530273,-0.07714844,0.60717773,-0.04576168,-0.05001858,-0.0010642251,0.033691406,0.4423828,0.0068359375,0.8959961
17/07/11 05:07:03:555,1831,-0.68530273,-0.07714844,0.60717773,-0.04576168,-0.05001858,-0.0010642251,0.033691406,0.4423828,0.0068359375,0.8959961
17/07/11 05:07:03:560,1836,-0.8029785,0.018066406,0.56469727,-0.028734077,-0.036183655,0.014899151,0.033691406,0.4423828,0.0068359375,0.8959961
17/07/11 05:07:03:566,1842,-0.8029785,0.018066406,0.56469727,-0.028734077,-0.036183655,0.014899151,0.02734375,0.43945313,0.00390625,0.89746094
17/07/11 05:07:03:571,1847,-0.7519531,0.012451172,0.5715332,-0.036183655,-0.05427548,-0.0053211255,0.023925781,0.44482422,0.001953125,0.89501953
17/07/11 05:07:03:576,1852,-0.7519531,0.012451172,0.5715332,-0.036183655,-0.05427548,-0.0053211255,0.023925781,0.44482422,0.001953125,0.89501953
17/07/11 05:07:03:581,1857,-0.7922363,0.057617188,0.548584,-0.026605628,-0.05214703,0.012770701,0.020019531,0.44433594,4.8828125E-4,0.8955078
17/07/11 05:07:03:586,1862,-0.7558594,0.14282227,0.57958984,-0.027669853,-0.03937633,0.0063853506,0.021484375,0.44726563,9.765625E-4,0.89404297
17/07/11 05:07:03:592,1868,-0.7558594,0.14282227,0.57958984,-0.027669853,-0.03937633,0.0063853506,0.021484375,0.44726563,9.765625E-4,0.89404297
17/07/11 05:07:03:598,1874,-0.7080078,-0.010009766,0.6184082,-0.05214703,-0.04576168,0.0021284502,0.025390625,0.44677734,0.0029296875,0.89404297
17/07/11 05:07:03:603,1879,-0.7080078,-0.010009766,0.6184082,-0.05214703,-0.04576168,0.0021284502,0.025390625,0.44677734,0.0029296875,0.89404297
17/07/11 05:07:03:608,1884,-0.7080078,-0.010009766,0.6184082,-0.05214703,-0.04576168,0.0021284502,0.025390625,0.44677734,0.0029296875,0.89404297
17/07/11 05:07:03:613,1889,-0.7729492,9.765625E-4,0.56518555,-0.032990977,-0.036183655,0.012770701,0.021484375,0.44189453,9.765625E-4,0.8964844
17/07/11 05:07:03:618,1894,-0.75097656,0.0029296875,0.5822754,-0.030862529,-0.04789013,-0.0,0.018554688,0.44384766,0.0,0.8959961
17/07/11 05:07:03:624,1900,-0.7783203,-0.006591797,0.5449219,-0.037247878,-0.05214703,0.009578026,0.016601563,0.44335938,-9.765625E-4,0.8959961
17/07/11 05:07:03:629,1905,-0.7783203,-0.006591797,0.5449219,-0.037247878,-0.05214703,0.009578026,0.016601563,0.44335938,-9.765625E-4,0.8959961
17/07/11 05:07:03:634,1910,-0.7783203,-0.006591797,0.5449219,-0.037247878,-0.05214703,0.009578026,0.016601563,0.44335938,-9.765625E-4,0.8959961
17/07/11 05:07:03:639,1915,-0.7783203,-0.006591797,0.5449219,-0.037247878,-0.05214703,0.009578026,0.016601563,0.44335938,-9.765625E-4,0.8959961
17/07/11 05:07:03:645,1921,-0.7783203,-0.006591797,0.5449219,-0.037247878,-0.05214703,0.009578026,0.016601563,0.44335938,-9.765625E-4,0.8959961
17/07/11 05:07:03:651,1927,-0.7783203,-0.006591797,0.5449219,-0.037247878,-0.05214703,0.009578026,0.016601563,0.44335938,-9.765625E-4,0.8959961
17/07/11 05:07:03:658,1934,-0.7739258,0.10131836,0.56811523,-0.029798303,-0.041504778,0.009578026,0.015625,0.44433594,-0.0014648438,0.8955078
17/07/11 05:07:03:663,1939,-0.7739258,0.10131836,0.56811523,-0.029798303,-0.041504778,0.009578026,0.015625,0.44433594,-0.0014648438,0.8955078
17/07/11 05:07:03:668,1944,-0.7739258,0.10131836,0.56811523,-0.029798303,-0.041504778,0.009578026,0.015625,0.44433594,-0.0014648438,0.8955078
17/07/11 05:07:03:673,1949,-0.7739258,0.10131836,0.56811523,-0.029798303,-0.041504778,0.009578026,0.015625,0.44433594,-0.0014648438,0.8955078
17/07/11 05:07:03:679,1955,-0.76293945,0.03100586,0.5905762,-0.03937633,-0.040440552,0.012770701,0.0234375,0.4428711,0.001953125,0.8959961
17/07/11 05:07:03:685,1961,-0.72998047,0.027832031,0.5505371,-0.03192675,-0.042569004,-0.0,0.017578125,0.44482422,-4.8828125E-4,0.8955078
17/07/11 05:07:03:693,1969,-0.72998047,0.027832031,0.5505371,-0.03192675,-0.042569004,-0.0,0.017578125,0.44482422,-4.8828125E-4,0.8955078
17/07/11 05:07:03:698,1974,-0.70214844,0.056152344,0.5744629,-0.05001858,-0.032990977,0.0053211255,0.015136719,0.44970703,-0.0014648438,0.8930664
17/07/11 05:07:03:703,1979,-0.70214844,0.056152344,0.5744629,-0.05001858,-0.032990977,0.0053211255,0.015136719,0.44970703,-0.0014648438,0.8930664
17/07/11 05:07:03:709,1985,-0.70214844,0.056152344,0.5744629,-0.05001858,-0.032990977,0.0053211255,0.015136719,0.44970703,-0.0014648438,0.8930664
17/07/11 05:07:03:714,1990,-0.70214844,0.056152344,0.5744629,-0.05001858,-0.032990977,0.0053211255,0.015136719,0.44970703,-0.0014648438,0.8930664
17/07/11 05:07:03:719,1995,-0.70214844,0.056152344,0.5744629,-0.05001858,-0.032990977,0.0053211255,0.015136719,0.44970703,-0.0014648438,0.8930664
17/07/11 05:07:03:725,2001,-0.70214844,0.056152344,0.5744629,-0.05001858,-0.032990977,0.0053211255,0.015136719,0.44970703,-0.0014648438,0.8930664
17/07/11 05:07:03:730,2006,-0.70214844,0.056152344,0.5744629,-0.05001858,-0.032990977,0.0053211255,0.015136719,0.44970703,-0.0014648438,0.8930664
17/07/11 05:07:03:736,2012,-0.70214844,0.056152344,0.5744629,-0.05001858,-0.032990977,0.0053211255,0.015136719,0.44970703,-0.0014648438,0.8930664
17/07/11 05:07:03:741,2017,-0.70214844,0.056152344,0.5744629,-0.05001858,-0.032990977,0.0053211255,0.015136719,0.44970703,-0.0014648438,0.8930664
17/07/11 05:07:03:752,2028,-0.70214844,0.056152344,0.5744629,-0.05001858,-0.032990977,0.0053211255,0.015136719,0.44970703,-0.0014648438,0.8930664
17/07/11 05:07:03:757,2033,-0.70214844,0.056152344,0.5744629,-0.05001858,-0.032990977,0.0053211255,0.015136719,0.44970703,-0.0014648438,0.8930664
17/07/11 05:07:03:762,2038,-0.70214844,0.056152344,0.5744629,-0.05001858,-0.032990977,0.0053211255,0.015136719,0.44970703,-0.0014648438,0.8930664
17/07/11 05:07:03:768,2044,-0.70214844,0.056152344,0.5744629,-0.05001858,-0.032990977,0.0053211255,0.015136719,0.44970703,-0.0014648438,0.8930664
17/07/11 05:07:03:773,2049,-0.8413086,0.033691406,0.5942383,-0.04576168,-0.042569004,0.020220276,0.016113281,0.44873047,-9.765625E-4,0.8935547
17/07/11 05:07:03:778,2054,-0.8413086,0.033691406,0.5942383,-0.04576168,-0.042569004,0.020220276,0.016113281,0.44873047,-9.765625E-4,0.8935547
17/07/11 05:07:03:783,2059,-0.8413086,0.033691406,0.5942383,-0.04576168,-0.042569004,0.020220276,0.016113281,0.44873047,-9.765625E-4,0.8935547
17/07/11 05:07:03:789,2065,-0.8413086,0.033691406,0.5942383,-0.04576168,-0.042569004,0.020220276,0.016113281,0.44873047,-9.765625E-4,0.8935547
17/07/11 05:07:03:799,2075,-0.8413086,0.033691406,0.5942383,-0.04576168,-0.042569004,0.020220276,0.016113281,0.44873047,-9.765625E-4,0.8935547
17/07/11 05:07:03:804,2080,-0.8413086,0.033691406,0.5942383,-0.04576168,-0.042569004,0.020220276,0.016113281,0.44873047,-9.765625E-4,0.8935547
17/07/11 05:07:03:815,2091,-0.8413086,0.033691406,0.5942383,-0.04576168,-0.042569004,0.020220276,0.016113281,0.44873047,-9.765625E-4,0.8935547
17/07/11 05:07:03:821,2097,-0.8413086,0.033691406,0.5942383,-0.04576168,-0.042569004,0.020220276,0.016113281,0.44873047,-9.765625E-4,0.8935547
17/07/11 05:07:03:826,2102,-0.77978516,0.08569336,0.5612793,-0.06917463,-0.0053211255,0.013834926,0.024902344,0.44335938,0.0029296875,0.8955078
17/07/11 05:07:03:833,2109,-0.73583984,-0.12695313,0.57788086,-0.042569004,-0.048954353,0.0031926753,0.020996094,0.44726563,0.0014648438,0.89404297
17/07/11 05:07:03:838,2114,-0.73583984,-0.12695313,0.57788086,-0.042569004,-0.048954353,0.0031926753,0.020996094,0.44726563,0.0014648438,0.89404297
17/07/11 05:07:03:845,2121,-0.73583984,-0.12695313,0.57788086,-0.042569004,-0.048954353,0.0031926753,0.020996094,0.44726563,0.0014648438,0.89404297
17/07/11 05:07:03:852,2128,-0.73583984,-0.12695313,0.57788086,-0.042569004,-0.048954353,0.0031926753,0.020996094,0.44726563,0.0014648438,0.89404297
17/07/11 05:07:03:858,2134,-0.73583984,-0.12695313,0.57788086,-0.042569004,-0.048954353,0.0031926753,0.020996094,0.44726563,0.0014648438,0.89404297
17/07/11 05:07:03:863,2139,-0.73583984,-0.12695313,0.57788086,-0.042569004,-0.048954353,0.0031926753,0.020996094,0.44726563,0.0014648438,0.89404297
17/07/11 05:07:03:868,2144,-0.73583984,-0.12695313,0.57788086,-0.042569004,-0.048954353,0.0031926753,0.020996094,0.44726563,0.0014648438,0.89404297
17/07/11 05:07:03:873,2149,-0.73583984,-0.12695313,0.57788086,-0.042569004,-0.048954353,0.0031926753,0.020996094,0.44726563,0.0014648438,0.89404297
17/07/11 05:07:03:878,2154,-0.73583984,-0.12695313,0.57788086,-0.042569004,-0.048954353,0.0031926753,0.020996094,0.44726563,0.0014648438,0.89404297
17/07/11 05:07:03:883,2159,-0.73583984,-0.12695313,0.57788086,-0.042569004,-0.048954353,0.0031926753,0.020996094,0.44726563,0.0014648438,0.89404297
17/07/11 05:07:03:899,2175,-0.7697754,0.00390625,0.5756836,-0.022348728,-0.05853238,0.010642251,0.015136719,0.44921875,-0.0014648438,0.8930664
17/07/11 05:07:03:908,2184,-0.7692871,0.0036621094,0.5834961,-0.017027602,-0.07343153,0.0074495757,0.015136719,0.44921875,-0.0014648438,0.8930664
17/07/11 05:07:03:917,2193,-0.7597656,0.022216797,0.5698242,-0.030862529,-0.037247878,0.0063853506,0.017089844,0.44335938,-4.8828125E-4,0.8959961
17/07/11 05:07:03:922,2198,-0.75927734,-0.03881836,0.57177734,-0.034055203,-0.053211257,0.0074495757,0.017089844,0.44384766,-9.765625E-4,0.8959961
17/07/11 05:07:03:927,2203,-0.7404785,-0.060546875,0.5822754,-0.048954353,-0.042569004,0.0031926753,0.013183594,0.44384766,-0.0024414063,0.8955078
17/07/11 05:07:03:932,2208,-0.7404785,-0.060546875,0.5822754,-0.048954353,-0.042569004,0.0031926753,0.013183594,0.44384766,-0.0024414063,0.8955078
17/07/11 05:07:03:937,2213,-0.7404785,-0.060546875,0.5822754,-0.048954353,-0.042569004,0.0031926753,0.013183594,0.44384766,-0.0024414063,0.8955078
17/07/11 05:07:03:942,2218,-0.7807617,0.07397461,0.5649414,-0.025541402,-0.04363323,0.010642251,0.01171875,0.44384766,-0.0034179688,0.8959961
17/07/11 05:07:03:948,2224,-0.7807617,0.07397461,0.5649414,-0.025541402,-0.04363323,0.010642251,0.01171875,0.44384766,-0.0034179688,0.8959961
17/07/11 05:07:03:953,2229,-0.74560547,0.08642578,0.58447266,-0.021284502,-0.06278928,-0.0,0.018066406,0.44628906,-4.8828125E-4,0.89453125
17/07/11 05:07:03:958,2234,-0.75390625,0.08935547,0.58325195,-0.038312104,-0.037247878,0.0053211255,0.01953125,0.44580078,0.0,0.89501953
17/07/11 05:07:03:963,2239,-0.75390625,0.08935547,0.58325195,-0.038312104,-0.037247878,0.0053211255,0.01953125,0.44580078,0.0,0.89501953
17/07/11 05:07:03:970,2246,-0.7685547,0.017822266,0.5683594,-0.051082805,-0.032990977,0.008513801,0.020507813,0.4453125,4.8828125E-4,0.89501953
17/07/11 05:07:03:978,2254,-0.7441406,-0.05053711,0.58251953,-0.034055203,-0.053211257,0.0031926753,0.017089844,0.44677734,-4.8828125E-4,0.89404297
17/07/11 05:07:03:984,2260,-0.7441406,-0.05053711,0.58251953,-0.034055203,-0.053211257,0.0031926753,0.017089844,0.44677734,-4.8828125E-4,0.89404297
17/07/11 05:07:03:992,2268,-0.75341797,0.021728516,0.5749512,-0.044697456,-0.044697456,0.0053211255,0.016113281,0.44873047,-0.0014648438,0.8935547
17/07/11 05:07:04:003,2279,-0.7438965,0.107666016,0.57177734,-0.024477176,-0.048954353,0.0053211255,0.019042969,0.44677734,0.0,0.89404297
17/07/11 05:07:04:021,2297,-0.7438965,0.107666016,0.57177734,-0.024477176,-0.048954353,0.0053211255,0.019042969,0.44677734,0.0,0.89404297
17/07/11 05:07:04:028,2304,-0.75878906,0.005126953,0.58618164,-0.05214703,-0.040440552,0.0063853506,0.020996094,0.44677734,4.8828125E-4,0.89404297
17/07/11 05:07:04:033,2309,-0.75878906,0.005126953,0.58618164,-0.05214703,-0.040440552,0.0063853506,0.020996094,0.44677734,4.8828125E-4,0.89404297
17/07/11 05:07:04:039,2315,-0.7741699,-0.00390625,0.5644531,-0.038312104,-0.038312104,0.009578026,0.0146484375,0.44384766,-0.001953125,0.8955078
17/07/11 05:07:04:044,2320,-0.7741699,-0.00390625,0.5644531,-0.038312104,-0.038312104,0.009578026,0.0146484375,0.44384766,-0.001953125,0.8955078
17/07/11 05:07:04:050,2326,-0.7348633,0.005126953,0.58569336,-0.025541402,-0.055339705,0.0021284502,0.013183594,0.44482422,-0.0024414063,0.89501953
17/07/11 05:07:04:055,2331,-0.7348633,0.005126953,0.58569336,-0.025541402,-0.055339705,0.0021284502,0.013183594,0.44482422,-0.0024414063,0.89501953
17/07/11 05:07:04:061,2337,-0.7348633,0.005126953,0.58569336,-0.025541402,-0.055339705,0.0021284502,0.013183594,0.44482422,-0.0024414063,0.89501953
17/07/11 05:07:04:065,2341,-0.7348633,0.005126953,0.58569336,-0.025541402,-0.055339705,0.0021284502,0.013183594,0.44482422,-0.0024414063,0.8959961
17/07/11 05:07:04:084,2360,-0.7583008,0.043945313,0.5703125,-0.034055203,-0.042569004,0.008513801,0.017089844,0.44433594,-9.765625E-4,0.8955078
17/07/11 05:07:04:094,2370,-0.75756836,2.4414063E-4,0.58154297,-0.04789013,-0.036183655,0.0042569004,0.018554688,0.44482422,0.0,0.8955078
17/07/11 05:07:04:103,2379,-0.75756836,2.4414063E-4,0.58154297,-0.04789013,-0.036183655,0.0042569004,0.018554688,0.44482422,0.0,0.8955078
17/07/11 05:07:04:108,2384,-0.75756836,2.4414063E-4,0.58154297,-0.04789013,-0.036183655,0.0042569004,0.018554688,0.44482422,0.0,0.8955078
17/07/11 05:07:04:115,2391,-0.75756836,2.4414063E-4,0.58154297,-0.04789013,-0.036183655,0.0042569004,0.018554688,0.44482422,0.0,0.8955078
17/07/11 05:07:04:122,2398,-0.75756836,2.4414063E-4,0.58154297,-0.04789013,-0.036183655,0.0042569004,0.018554688,0.44482422,0.0,0.8955078
17/07/11 05:07:04:127,2403,-0.75756836,2.4414063E-4,0.58154297,-0.04789013,-0.036183655,0.0042569004,0.018554688,0.44482422,0.0,0.8955078
17/07/11 05:07:04:132,2408,-0.7561035,-0.008544922,0.5666504,-0.032990977,-0.051082805,0.0063853506,0.017089844,0.44433594,-4.8828125E-4,0.8955078
17/07/11 05:07:04:138,2414,-0.7487793,0.05834961,0.57910156,-0.044697456,-0.040440552,0.0074495757,0.020019531,0.44433594,0.0,0.8955078
17/07/11 05:07:04:144,2420,-0.7680664,0.035888672,0.57250977,-0.04363323,-0.038312104,0.010642251,0.020507813,0.44433594,4.8828125E-4,0.8955078
17/07/11 05:07:04:149,2425,-0.736084,0.044677734,0.58618164,-0.027669853,-0.04789013,0.0021284502,0.020507813,0.44580078,4.8828125E-4,0.89453125
17/07/11 05:07:04:154,2430,-0.736084,0.044677734,0.58618164,-0.027669853,-0.04789013,0.0021284502,0.020507813,0.44580078,4.8828125E-4,0.89453125
17/07/11 05:07:04:160,2436,-0.76464844,7.324219E-4,0.57543945,-0.03937633,-0.046825904,0.008513801,0.020996094,0.44433594,9.765625E-4,0.8955078
17/07/11 05:07:04:168,2444,-0.7709961,0.0043945313,0.5673828,-0.044697456,-0.036183655,0.0053211255,0.017578125,0.44482422,-4.8828125E-4,0.8955078
17/07/11 05:07:04:173,2449,-0.7709961,0.0043945313,0.5673828,-0.044697456,-0.036183655,0.0053211255,0.017578125,0.44482422,-4.8828125E-4,0.8955078
17/07/11 05:07:04:179,2455,-0.7709961,0.0043945313,0.5673828,-0.044697456,-0.036183655,0.0053211255,0.017578125,0.44482422,-4.8828125E-4,0.8955078
17/07/11 05:07:04:184,2460,-0.7709961,0.0043945313,0.5673828,-0.044697456,-0.036183655,0.0053211255,0.017578125,0.44482422,-4.8828125E-4,0.8955078
17/07/11 05:07:04:193,2469,-0.7709961,0.0043945313,0.5673828,-0.044697456,-0.036183655,0.0053211255,0.017578125,0.44482422,-4.8828125E-4,0.8955078
17/07/11 05:07:04:200,2476,-0.7709961,0.0043945313,0.5673828,-0.044697456,-0.036183655,0.0053211255,0.017578125,0.44482422,-4.8828125E-4,0.8955078
17/07/11 05:07:04:206,2482,-0.7709961,0.0043945313,0.5673828,-0.044697456,-0.036183655,0.0053211255,0.017578125,0.44482422,-4.8828125E-4,0.8955078
17/07/11 05:07:04:211,2487,-0.7709961,0.0043945313,0.5673828,-0.044697456,-0.036183655,0.0053211255,0.017578125,0.44482422,-4.8828125E-4,0.8955078
17/07/11 05:07:04:216,2492,-0.7709961,0.0043945313,0.5673828,-0.044697456,-0.036183655,0.0053211255,0.017578125,0.44482422,-4.8828125E-4,0.8955078
17/07/11 05:07:04:221,2497,-0.7709961,0.0043945313,0.5673828,-0.044697456,-0.036183655,0.0053211255,0.017578125,0.44482422,-4.8828125E-4,0.8955078
17/07/11 05:07:04:226,2502,-0.7709961,0.0043945313,0.5673828,-0.044697456,-0.036183655,0.0053211255,0.017578125,0.44482422,-4.8828125E-4,0.8955078
17/07/11 05:07:04:231,2507,-0.7709961,0.0043945313,0.5673828,-0.044697456,-0.036183655,0.0053211255,0.017578125,0.44482422,-4.8828125E-4,0.8955078
17/07/11 05:07:04:236,2512,-0.7709961,0.0043945313,0.5673828,-0.044697456,-0.036183655,0.0053211255,0.017578125,0.44482422,-4.8828125E-4,0.8955078
17/07/11 05:07:04:241,2517,-0.7709961,0.0043945313,0.5673828,-0.044697456,-0.036183655,0.0053211255,0.017578125,0.44482422,-4.8828125E-4,0.8955078
17/07/11 05:07:04:246,2522,-0.7709961,0.0043945313,0.5673828,-0.044697456,-0.036183655,0.0053211255,0.017578125,0.44482422,-4.8828125E-4,0.8955078
17/07/11 05:07:04:252,2528,-0.7553711,0.03857422,0.5788574,-0.029798303,-0.05001858,0.0063853506,0.016601563,0.44482422,-9.765625E-4,0.89501953
17/07/11 05:07:04:258,2534,-0.7553711,0.03857422,0.5788574,-0.029798303,-0.05001858,0.0063853506,0.016601563,0.44482422,-9.765625E-4,0.89501953
17/07/11 05:07:04:263,2539,-0.7553711,0.03857422,0.5788574,-0.029798303,-0.05001858,0.0063853506,0.016601563,0.44482422,-9.765625E-4,0.89501953
17/07/11 05:07:04:269,2545,-0.7553711,0.03857422,0.5788574,-0.029798303,-0.05001858,0.0063853506,0.016601563,0.44482422,-9.765625E-4,0.89501953
17/07/11 05:07:04:274,2550,-0.7553711,0.03857422,0.5788574,-0.029798303,-0.05001858,0.0063853506,0.016601563,0.44482422,-9.765625E-4,0.89501953
17/07/11 05:07:04:279,2555,-0.734375,0.064453125,0.5949707,-0.024477176,-0.05427548,0.0053211255,0.017089844,0.4453125,-9.765625E-4,0.89501953
17/07/11 05:07:04:284,2560,-0.734375,0.064453125,0.5949707,-0.024477176,-0.05427548,0.0053211255,0.017089844,0.4453125,-9.765625E-4,0.89501953
17/07/11 05:07:04:289,2565,-0.734375,0.064453125,0.5949707,-0.024477176,-0.05427548,0.0053211255,0.017089844,0.4453125,-9.765625E-4,0.89501953
17/07/11 05:07:04:294,2570,-0.734375,0.064453125,0.5949707,-0.024477176,-0.05427548,0.0053211255,0.017089844,0.4453125,-9.765625E-4,0.89501953
17/07/11 05:07:04:299,2575,-0.734375,0.064453125,0.5949707,-0.024477176,-0.05427548,0.0053211255,0.017089844,0.4453125,-9.765625E-4,0.89501953
17/07/11 05:07:04:304,2580,-0.734375,0.064453125,0.5949707,-0.024477176,-0.05427548,0.0053211255,0.017089844,0.4453125,-9.765625E-4,0.89501953
17/07/11 05:07:04:309,2585,-0.734375,0.064453125,0.5949707,-0.024477176,-0.05427548,0.0053211255,0.017089844,0.4453125,-9.765625E-4,0.89501953
17/07/11 05:07:04:314,2590,-0.734375,0.064453125,0.5949707,-0.024477176,-0.05427548,0.0053211255,0.017089844,0.4453125,-9.765625E-4,0.89501953
17/07/11 05:07:04:319,2595,-0.734375,0.064453125,0.5949707,-0.024477176,-0.05427548,0.0053211255,0.017089844,0.4453125,-9.765625E-4,0.89501953
17/07/11 05:07:04:324,2600,-0.734375,0.064453125,0.5949707,-0.024477176,-0.05427548,0.0053211255,0.017089844,0.4453125,-9.765625E-4,0.89501953
17/07/11 05:07:04:329,2605,-0.76586914,0.022460938,0.5812988,-0.048954353,-0.021284502,0.020220276,0.022949219,0.44580078,0.0014648438,0.89453125
17/07/11 05:07:04:334,2610,-0.748291,-0.03515625,0.5974121,-0.041504778,-0.036183655,0.014899151,0.01953125,0.4453125,0.0,0.89501953
17/07/11 05:07:04:339,2615,-0.748291,-0.03515625,0.5974121,-0.041504778,-0.036183655,0.014899151,0.01953125,0.4453125,0.0,0.89501953
17/07/11 05:07:04:345,2621,-0.748291,-0.03515625,0.5974121,-0.041504778,-0.036183655,0.014899151,0.01953125,0.4453125,0.0,0.89501953
17/07/11 05:07:04:350,2626,-0.748291,-0.03515625,0.5974121,-0.041504778,-0.036183655,0.014899151,0.01953125,0.4453125,0.0,0.89501953
17/07/11 05:07:04:355,2631,-0.67407227,-0.028320313,0.67456055,-0.057468154,-0.03937633,-0.0074495757,0.016113281,0.44384766,-9.765625E-4,0.8955078
17/07/11 05:07:04:360,2636,-0.67407227,-0.028320313,0.67456055,-0.057468154,-0.03937633,-0.0074495757,0.016113281,0.44384766,-9.765625E-4,0.8955078
17/07/11 05:07:04:365,2641,-0.67407227,-0.028320313,0.67456055,-0.057468154,-0.03937633,-0.0074495757,0.016113281,0.44384766,-9.765625E-4,0.8955078
17/07/11 05:07:04:370,2646,-0.67407227,-0.028320313,0.67456055,-0.057468154,-0.03937633,-0.0074495757,0.016113281,0.44384766,-9.765625E-4,0.8955078
17/07/11 05:07:04:375,2651,-0.67407227,-0.028320313,0.67456055,-0.057468154,-0.03937633,-0.0074495757,0.016113281,0.44384766,-9.765625E-4,0.8955078
17/07/11 05:07:04:381,2657,-0.67407227,-0.028320313,0.67456055,-0.057468154,-0.03937633,-0.0074495757,0.016113281,0.44384766,-9.765625E-4,0.8955078
17/07/11 05:07:04:388,2664,-0.84472656,-0.12060547,0.5007324,0.26924896,-0.31501064,-0.0010642251,0.009277344,0.4477539,-0.0053710938,0.89404297
17/07/11 05:07:04:393,2669,-0.85302734,-0.16845703,0.4892578,0.46825904,-0.4459103,-0.020220276,0.0048828125,0.45166016,-0.009765625,0.89208984
17/07/11 05:07:04:398,2674,-0.68188477,4.8828125E-4,0.6413574,0.737508,-0.6385351,-0.040440552,0.0048828125,0.45263672,-0.013183594,0.89160156
17/07/11 05:07:04:403,2679,-0.68188477,4.8828125E-4,0.6413574,0.737508,-0.6385351,-0.040440552,0.0048828125,0.45263672,-0.013183594,0.89160156
17/07/11 05:07:04:408,2684,-0.7336426,0.004638672,0.6027832,0.737508,-0.62150747,-0.019156052,0.0073242188,0.44091797,-0.017578125,0.89697266
17/07/11 05:07:04:413,2689,-0.7336426,0.004638672,0.6027832,0.70770967,-0.62150747,-0.019156052,0.0073242188,0.44091797,-0.017578125,0.89697266
17/07/11 05:07:04:418,2694,-0.7758789,-0.115478516,0.57055664,0.71409506,-0.6779114,-0.0074495757,0.009765625,0.43798828,-0.021484375,0.8984375
17/07/11 05:07:04:423,2699,-0.7758789,-0.115478516,0.57055664,0.71409506,-0.6779114,-0.0074495757,0.009765625,0.43798828,-0.021484375,0.8984375
17/07/11 05:07:04:428,2704,-0.7758789,-0.115478516,0.57055664,0.71409506,-0.6779114,-0.0074495757,0.009765625,0.43798828,-0.021484375,0.8984375
17/07/11 05:07:04:433,2709,-0.7602539,-0.16113281,0.5270996,0.93438965,-0.79178345,-0.021284502,0.0048828125,0.4399414,-0.029296875,0.89746094
17/07/11 05:07:04:438,2714,-0.75561523,0.010498047,0.52441406,1.2440791,-0.86202234,-0.023412952,0.0043945313,0.44091797,-0.036621094,0.8964844
17/07/11 05:07:04:443,2719,-0.75561523,0.010498047,0.52441406,1.2440791,-0.86202234,-0.023412952,0.0043945313,0.44091797,-0.036621094,0.8964844
17/07/11 05:07:04:448,2724,-0.75561523,0.010498047,0.52441406,1.2440791,-0.86202234,-0.023412952,0.0043945313,0.44091797,-0.036621094,0.8964844
17/07/11 05:07:04:453,2729,-0.75561523,0.010498047,0.52441406,1.2440791,-0.86202234,-0.023412952,0.0043945313,0.44091797,-0.036621094,0.8964844
17/07/11 05:07:04:458,2734,-0.75561523,0.010498047,0.52441406,1.2440791,-0.86202234,-0.023412952,0.0043945313,0.44091797,-0.036621094,0.8964844
17/07/11 05:07:04:463,2739,-0.75561523,0.010498047,0.52441406,1.2440791,-0.86202234,-0.023412952,0.0043945313,0.44091797,-0.036621094,0.8964844
17/07/11 05:07:04:469,2745,-0.75561523,0.010498047,0.52441406,1.2440791,-0.86202234,-0.023412952,0.0043945313,0.44091797,-0.036621094,0.8964844
17/07/11 05:07:04:475,2751,-0.76782227,0.23291016,0.5822754,0.9162978,-0.94396764,0.029798303,0.04345703,0.44189453,-0.041015625,0.89501953
17/07/11 05:07:04:481,2757,-0.7993164,0.16064453,0.6628418,0.7758201,-1.012078,0.03511943,0.052734375,0.44140625,-0.04345703,0.89453125
17/07/11 05:07:04:486,2762,-0.7487793,-0.22314453,0.5175781,0.56723195,-0.7555998,-0.083009556,0.052734375,0.44140625,-0.04345703,0.8955078
17/07/11 05:07:04:492,2768,-0.7487793,-0.22314453,0.5175781,0.56723195,-0.7555998,-0.083009556,0.060546875,0.43847656,-0.04638672,0.8955078
17/07/11 05:07:04:498,2774,-0.7404785,-0.21557617,0.48388672,0.74495757,-0.74495757,-0.07023886,0.033691406,0.44482422,-0.064941406,0.8925781
17/07/11 05:07:04:503,2779,-0.7404785,-0.21557617,0.48388672,0.74495757,-0.74495757,-0.07023886,0.033691406,0.44482422,-0.064941406,0.8925781
17/07/11 05:07:04:509,2785,-0.7404785,-0.21557617,0.48388672,0.74495757,-0.74495757,-0.07023886,0.033691406,0.44482422,-0.064941406,0.8925781
17/07/11 05:07:04:514,2790,-0.7404785,-0.21557617,0.48388672,0.74495757,-0.74495757,-0.07023886,0.033691406,0.44482422,-0.064941406,0.8925781
17/07/11 05:07:04:535,2811,-0.7409668,0.091552734,0.61035156,1.3281529,-1.163198,-0.020220276,0.034179688,0.44482422,-0.07080078,0.89208984
17/07/11 05:07:04:541,2817,-0.7692871,-0.017089844,0.57250977,1.4484104,-1.2834555,-0.029798303,0.05810547,0.44091797,-0.08691406,0.8911133
17/07/11 05:07:04:547,2823,-0.7692871,-0.017089844,0.53271484,1.4484104,-1.2834555,-0.029798303,0.05810547,0.44091797,-0.08691406,0.8911133
17/07/11 05:07:04:552,2828,-0.77490234,-0.0041503906,0.53271484,1.4973648,-1.3153822,-0.028734077,0.060546875,0.44091797,-0.09667969,0.8901367
17/07/11 05:07:04:557,2833,-0.7883301,0.016845703,0.54541016,1.5420622,-1.3505017,-0.017027602,0.063964844,0.44189453,-0.10595703,0.8881836
17/07/11 05:07:04:562,2838,-0.7883301,0.016845703,0.54541016,1.5420622,-1.3505017,-0.017027602,0.063964844,0.44189453,-0.10595703,0.8881836
17/07/11 05:07:04:567,2843,-0.7578125,0.08496094,0.56884766,1.5612183,-1.3526301,-0.020220276,0.067871094,0.4428711,-0.115234375,0.88623047
17/07/11 05:07:04:573,2849,-0.7578125,0.08496094,0.56884766,1.5612183,-1.3526301,-0.020220276,0.067871094,0.4428711,-0.115234375,0.88623047
17/07/11 05:07:04:578,2854,-0.76538086,0.087646484,0.6003418,1.5388695,-1.3387952,-0.017027602,0.075683594,0.44140625,-0.122558594,0.8852539
17/07/11 05:07:04:583,2859,-0.76538086,0.087646484,0.6003418,1.5388695,-1.3387952,-0.017027602,0.075683594,0.44140625,-0.122558594,0.8852539
17/07/11 05:07:04:588,2864,-0.76538086,0.087646484,0.6003418,1.5388695,-1.3387952,-0.017027602,0.075683594,0.44140625,-0.122558594,0.8852539
17/07/11 05:07:04:594,2870,-0.76538086,0.087646484,0.6003418,1.5388695,-1.3387952,-0.017027602,0.075683594,0.44140625,-0.122558594,0.8852539
17/07/11 05:07:04:599,2875,-0.76538086,0.087646484,0.6003418,1.5388695,-1.3387952,-0.017027602,0.075683594,0.44140625,-0.122558594,0.8852539
17/07/11 05:07:04:605,2881,-0.76538086,0.087646484,0.6003418,1.5388695,-1.3387952,-0.017027602,0.075683594,0.44140625,-0.122558594,0.8852539
17/07/11 05:07:04:611,2887,-0.77734375,0.14501953,0.58569336,1.4271258,-1.2366296,-0.04576168,0.08105469,0.4399414,-0.13085938,0.88427734
17/07/11 05:07:04:616,2892,-0.7536621,0.19458008,0.5895996,1.2536572,-0.81093955,-0.07023886,0.095214844,0.43701172,-0.1430664,0.8828125
17/07/11 05:07:04:621,2897,-0.62719727,0.3269043,0.6088867,0.40759823,-0.35013005,-0.24264333,0.111816406,0.43359375,-0.14111328,0.8828125
17/07/11 05:07:04:627,2903,-0.9523926,0.061523438,0.5437012,0.074495755,-0.16601911,-0.34161624,0.12402344,0.4248047,-0.13769531,0.8857422
17/07/11 05:07:04:633,2909,-0.9523926,0.061523438,0.5437012,0.074495755,-0.16601911,-0.34161624,0.12402344,0.4248047,-0.13769531,0.8857422
17/07/11 05:07:04:639,2915,-0.9523926,0.061523438,0.5437012,0.074495755,-0.16601911,-0.34161624,0.12402344,0.4248047,-0.13769531,0.8857422
17/07/11 05:07:04:645,2921,-0.81347656,-0.0146484375,0.5871582,0.026605628,-0.15218419,-0.5980945,0.12109375,0.44628906,-0.14111328,0.8754883
17/07/11 05:07:04:651,2927,-0.81347656,-0.0146484375,0.5871582,0.026605628,-0.15218419,-0.5980945,0.12109375,0.44628906,-0.14111328,0.8754883
17/07/11 05:07:04:657,2933,-0.81347656,-0.0146484375,0.5871582,0.026605628,-0.15218419,-0.5980945,0.12109375,0.44628906,-0.14111328,0.8754883
17/07/11 05:07:04:662,2938,-0.81347656,-0.0146484375,0.5871582,0.026605628,-0.15218419,-0.5980945,0.12109375,0.44628906,-0.14111328,0.8754883
17/07/11 05:07:04:668,2944,-0.7961426,-0.06518555,0.5527344,0.097908705,-0.21390924,-0.70770967,0.11376953,0.44384766,-0.14550781,0.87646484
17/07/11 05:07:04:675,2951,-0.7368164,0.021728516,0.6269531,0.30436838,-0.330974,-0.80881107,0.10888672,0.43847656,-0.1508789,0.87890625
17/07/11 05:07:04:680,2956,-0.75024414,0.04345703,0.60058594,0.33948782,-0.36183652,-0.8279671,0.10546875,0.43017578,-0.15478516,0.8828125
17/07/11 05:07:04:685,2961,-0.72631836,0.072509766,0.6274414,0.31926754,-0.3480016,-0.86840767,0.10498047,0.42529297,-0.15771484,0.8847656
17/07/11 05:07:04:690,2966,-0.72631836,0.072509766,0.6274414,0.31926754,-0.3480016,-0.86840767,0.10498047,0.42529297,-0.15771484,0.8847656
17/07/11 05:07:04:696,2972,-0.72631836,0.072509766,0.6274414,0.31926754,-0.3480016,-0.86840767,0.10498047,0.42529297,-0.15771484,0.8847656
17/07/11 05:07:04:701,2977,-0.72631836,0.072509766,0.6274414,0.31926754,-0.3480016,-0.86840767,0.10498047,0.42529297,-0.15771484,0.8847656
17/07/11 05:07:04:707,2983,-0.72631836,0.072509766,0.6274414,0.31926754,-0.3480016,-0.86840767,0.10498047,0.42529297,-0.15771484,0.8847656
17/07/11 05:07:04:716,2992,-0.72631836,0.072509766,0.6274414,0.31926754,-0.3480016,-0.86840767,0.10498047,0.42529297,-0.15771484,0.8847656
17/07/11 05:07:04:721,2997,-0.66137695,0.076660156,0.62719727,0.2671205,-0.30543262,-0.87585723,0.10546875,0.41992188,-0.15966797,0.88671875
17/07/11 05:07:04:727,3003,-0.6413574,0.08129883,0.6386719,0.15111996,-0.21390924,-0.7492145,0.10595703,0.4086914,-0.16308594,0.89160156
17/07/11 05:07:04:733,3009,-0.64697266,0.03857422,0.6435547,0.10535829,-0.19262475,-0.6672691,0.10595703,0.4038086,-0.1640625,0.8935547
17/07/11 05:07:04:739,3015,-0.64697266,0.03857422,0.6435547,0.10535829,-0.19262475,-0.6672691,0.10595703,0.4038086,-0.1640625,0.8935547
17/07/11 05:07:04:744,3020,-0.66625977,0.032714844,0.6501465,0.08726646,-0.17985404,-0.6012872,0.10498047,0.39941406,-0.16552734,0.8955078
17/07/11 05:07:04:749,3025,-0.7006836,0.030273438,0.65185547,0.09258758,-0.18517517,-0.5725531,0.104003906,0.3955078,-0.16699219,0.89697266
17/07/11 05:07:04:754,3030,-0.7006836,0.030273438,0.65185547,0.09258758,-0.18517517,-0.5725531,0.104003906,0.3955078,-0.16699219,0.89697266
17/07/11 05:07:04:759,3035,-0.7285156,0.024902344,0.6484375,0.097908705,-0.18411094,-0.5927734,0.10253906,0.39208984,-0.16845703,0.8984375
17/07/11 05:07:04:764,3040,-0.7285156,0.024902344,0.6484375,0.097908705,-0.18411094,-0.5927734,0.10253906,0.39208984,-0.16845703,0.8984375
17/07/11 05:07:04:769,3045,-0.7409668,0.038330078,0.65405273,0.10748673,-0.18091826,-0.6566269,0.10058594,0.39013672,-0.17041016,0.8989258
17/07/11 05:07:04:777,3053,-0.7409668,0.038330078,0.65405273,0.10748673,-0.18091826,-0.6566269,0.10058594,0.39013672,-0.17041016,0.8989258
17/07/11 05:07:04:793,3069,-0.76000977,0.023925781,0.64624023,0.109615184,-0.18943207,-0.7492145,0.100097656,0.3876953,-0.17138672,0.89990234
17/07/11 05:07:04:798,3074,-0.7192383,0.006591797,0.64941406,0.12132166,-0.21710192,-0.8513801,0.099121094,0.38623047,-0.17285156,0.9003906
17/07/11 05:07:04:803,3079,-0.69506836,-2.4414063E-4,0.6635742,0.15324841,-0.26179937,-0.9184263,0.09716797,0.38330078,-0.17480469,0.9013672
17/07/11 05:07:04:808,3084,-0.69506836,-2.4414063E-4,0.6635742,0.15324841,-0.26179937,-0.9184263,0.09716797,0.38330078,-0.17480469,0.9013672
17/07/11 05:07:04:813,3089,-0.69506836,-2.4414063E-4,0.66503906,0.19794586,-0.32033175,-0.950353,0.095214844,0.37939453,-0.17675781,0.90283203
17/07/11 05:07:04:818,3094,-0.62890625,0.012207031,0.6862793,0.2586067,-0.38418525,-0.9535457,0.09277344,0.37451172,-0.1796875,0.90478516
17/07/11 05:07:04:823,3099,-0.62890625,0.012207031,0.6862793,0.2586067,-0.38418525,-0.9535457,0.09277344,0.37451172,-0.1796875,0.90478516
17/07/11 05:07:04:829,3105,-0.62890625,0.012207031,0.6862793,0.2586067,-0.38418525,-0.9535457,0.09277344,0.37451172,-0.1796875,0.90478516
17/07/11 05:07:04:834,3110,-0.6604004,0.025146484,0.6748047,0.30756104,-0.43739653,-0.93226117,0.091796875,0.36865234,-0.1821289,0.9067383
17/07/11 05:07:04:840,3116,-0.6604004,0.025146484,0.6748047,0.30756104,-0.43739653,-0.93226117,0.091796875,0.36865234,-0.1821289,0.9067383
17/07/11 05:07:04:845,3121,-0.6604004,0.025146484,0.6748047,0.30756104,-0.43739653,-0.93226117,0.091796875,0.36865234,-0.1821289,0.9067383
17/07/11 05:07:04:850,3126,-0.6604004,0.025146484,0.6748047,0.30756104,-0.43739653,-0.93226117,0.091796875,0.36865234,-0.1821289,0.9067383
17/07/11 05:07:04:855,3131,-0.6604004,0.025146484,0.6748047,0.30756104,-0.43739653,-0.93226117,0.091796875,0.36865234,-0.1821289,0.9067383
17/07/11 05:07:04:860,3136,-0.6604004,0.025146484,0.6748047,0.30756104,-0.43739653,-0.93226117,0.091796875,0.36865234,-0.1821289,0.9067383
17/07/11 05:07:04:865,3141,-0.6411133,0.03540039,0.6906738,0.33948782,-0.47783706,-0.9290685,0.09033203,0.36376953,-0.18554688,0.9082031
17/07/11 05:07:04:871,3147,-0.64160156,0.043945313,0.7128906,0.33735937,-0.49380046,-0.983344,0.091308594,0.34814453,-0.19384766,0.91259766
17/07/11 05:07:04:880,3156,-0.6308594,0.021972656,0.7141113,0.33310246,-0.50550693,-1.025913,0.091796875,0.34326172,-0.19628906,0.9135742
17/07/11 05:07:04:885,3161,-0.6308594,0.021972656,0.7141113,0.33310246,-0.50550693,-1.025913,0.091796875,0.34326172,-0.19628906,0.9135742
17/07/11 05:07:04:890,3166,-0.6308594,0.021972656,0.7141113,0.33310246,-0.50550693,-1.025913,0.091796875,0.34326172,-0.19628906,0.9135742
17/07/11 05:07:04:896,3172,-0.6308594,0.021972656,0.7141113,0.33310246,-0.50550693,-1.025913,0.091796875,0.34326172,-0.19628906,0.9135742
17/07/11 05:07:04:902,3178,-0.6308594,0.021972656,0.7141113,0.33310246,-0.50550693,-1.025913,0.091796875,0.34326172,-0.19628906,0.9135742
17/07/11 05:07:04:907,3183,-0.6308594,0.021972656,0.7141113,0.33310246,-0.50550693,-1.025913,0.091796875,0.34326172,-0.19628906,0.9135742
17/07/11 05:07:04:912,3188,-0.62475586,0.0146484375,0.7207031,0.34268048,-0.52785563,-1.0620966,0.08984375,0.3383789,-0.19970703,0.91503906
17/07/11 05:07:04:918,3194,-0.6032715,0.03466797,0.7348633,0.3767357,-0.5938376,-1.1185006,0.08886719,0.32714844,-0.20654297,0.91748047
17/07/11 05:07:04:924,3200,-0.5969238,0.05834961,0.7453613,0.36609343,-0.59170914,-1.205767,0.09082031,0.31591797,-0.21240234,0.9199219
17/07/11 05:07:04:932,3208,-0.5969238,0.05834961,0.7453613,0.36609343,-0.59170914,-1.205767,0.09082031,0.31591797,-0.21240234,0.9199219
17/07/11 05:07:04:937,3213,-0.56640625,0.045898438,0.7512207,0.34055203,-0.57681,-1.2557856,0.091308594,0.31054688,-0.21533203,0.92089844
17/07/11 05:07:04:942,3218,-0.5444336,0.05029297,0.7590332,0.32778132,-0.57361734,-1.2781343,0.091796875,0.30322266,-0.21875,0.92285156
17/07/11 05:07:04:952,3228,-0.5444336,0.05029297,0.7590332,0.32778132,-0.57361734,-1.2781343,0.091796875,0.30322266,-0.21875,0.92285156
17/07/11 05:07:04:958,3234,-0.5444336,0.05029297,0.7590332,0.32778132,-0.57361734,-1.2781343,0.091796875,0.30322266,-0.21875,0.92285156
17/07/11 05:07:04:963,3239,-0.5280762,0.05419922,0.76220703,0.321396,-0.5746816,-1.2749417,0.091796875,0.29541016,-0.22167969,0.9243164
17/07/11 05:07:04:968,3244,-0.5280762,0.05419922,0.76220703,0.321396,-0.5746816,-1.2749417,0.091796875,0.29541016,-0.22167969,0.9243164
17/07/11 05:07:04:973,3249,-0.5119629,0.040039063,0.7783203,0.3096895,-0.58638805,-1.2664279,0.091308594,0.2890625,-0.22460938,0.92578125
17/07/11 05:07:04:978,3254,-0.50439453,0.036865234,0.77978516,0.31288218,-0.6055441,-1.2547214,0.09033203,0.28173828,-0.22802734,0.9272461
17/07/11 05:07:04:984,3260,-0.44580078,0.040771484,0.8120117,0.32778132,-0.65024155,-1.3675293,0.088378906,0.26708984,-0.23779297,0.9291992
17/07/11 05:07:05:018,3294,-0.50146484,0.08984375,0.80322266,0.30862528,-0.6076725,-1.3547585,0.08642578,0.25439453,-0.24169922,0.9321289
17/07/11 05:07:05:039,3315,-0.50146484,0.08984375,0.80322266,0.30862528,-0.6076725,-1.3547585,0.08642578,0.25439453,-0.24169922,0.9321289
17/07/11 05:07:05:050,3326,-0.41748047,0.061035156,0.8273926,0.21284503,-0.54062635,-1.432447,0.08544922,0.2241211,-0.2524414,0.9370117
17/07/11 05:07:05:068,3344,-0.3876953,0.05029297,0.8395996,0.1904963,-0.5257272,-1.4452177,0.08544922,0.2163086,-0.2548828,0.93847656
17/07/11 05:07:05:073,3349,-0.3876953,0.05029297,0.8395996,0.1904963,-0.5257272,-1.4452177,0.08544922,0.2163086,-0.2548828,0.93847656
17/07/11 05:07:05:089,3365,-0.3876953,0.05029297,0.8395996,0.1904963,-0.5257272,-1.4452177,0.08544922,0.2163086,-0.2548828,0.93847656
17/07/11 05:07:05:094,3370,-0.3876953,0.05029297,0.8395996,0.1904963,-0.5257272,-1.4452177,0.08544922,0.2163086,-0.2548828,0.93847656
17/07/11 05:07:05:099,3375,-0.3696289,0.03540039,0.8413086,0.1734687,-0.52359873,-1.4356396,0.083496094,0.2084961,-0.2578125,0.9394531
17/07/11 05:07:05:106,3382,-0.32080078,0.036132813,0.8586426,0.15856954,-0.5331768,-1.3483732,0.079589844,0.1928711,-0.2631836,0.94140625
17/07/11 05:07:05:120,3396,-0.3173828,0.06225586,0.86376953,0.14260617,-0.52253455,-1.2642994,0.076171875,0.1796875,-0.2680664,0.9433594
17/07/11 05:07:05:129,3405,-0.32080078,0.052001953,0.87060547,0.12983546,-0.5065712,-1.2366296,0.07470703,0.17333984,-0.2705078,0.94384766
17/07/11 05:07:05:135,3411,-0.32080078,0.052001953,0.87060547,0.12983546,-0.5065712,-1.2366296,0.07470703,0.17333984,-0.2705078,0.94384766
17/07/11 05:07:05:140,3416,-0.31152344,0.07397461,0.876709,0.12983546,-0.4576168,-1.2302442,0.07470703,0.17333984,-0.2705078,0.94384766
17/07/11 05:07:05:148,3424,-0.30395508,0.07128906,0.88061523,0.09578026,-0.40866244,-1.233437,0.07324219,0.16064453,-0.27441406,0.9448242
17/07/11 05:07:05:153,3429,-0.30395508,0.07128906,0.88061523,0.09578026,-0.40866244,-1.233437,0.07324219,0.16064453,-0.27441406,0.9448242
17/07/11 05:07:05:164,3440,-0.27270508,0.03955078,0.8930664,0.05853238,-0.33735937,-1.2121524,0.06982422,0.14794922,-0.27783203,0.94628906
17/07/11 05:07:05:178,3454,-0.26708984,0.04321289,0.90063477,0.011706476,-0.22348727,-1.2355653,0.06298828,0.12890625,-0.28173828,0.9482422
17/07/11 05:07:05:208,3484,-0.23242188,0.045898438,0.9025879,-0.015963376,-0.11387209,-1.3036758,0.05859375,0.11767578,-0.28320313,0.94970703
17/07/11 05:07:05:224,3500,-0.23242188,0.045898438,0.9025879,-0.015963376,-0.11387209,-1.3036758,0.05859375,0.11767578,-0.28320313,0.94970703
17/07/11 05:07:05:230,3506,-0.21508789,0.05444336,0.9057617,-0.032990977,-0.041504778,-1.3451805,0.057128906,0.111328125,-0.2836914,0.9506836
17/07/11 05:07:05:247,3523,-0.21508789,0.05444336,0.9057617,-0.032990977,-0.041504778,-1.3451805,0.057128906,0.111328125,-0.2836914,0.9506836
17/07/11 05:07:05:252,3528,-0.21508789,0.05444336,0.9057617,-0.032990977,-0.041504778,-1.3451805,0.057128906,0.111328125,-0.2836914,0.9506836
17/07/11 05:07:05:265,3541,-0.21508789,0.05444336,0.9057617,-0.032990977,-0.041504778,-1.3451805,0.057128906,0.111328125,-0.2836914,0.9506836
17/07/11 05:07:05:273,3549,-0.2331543,0.040283203,0.90649414,-0.04789013,0.0010642251,-1.389878,0.05517578,0.10498047,-0.28320313,0.9511719
17/07/11 05:07:05:305,3581,-0.2331543,0.040283203,0.90649414,-0.04789013,0.0010642251,-1.389878,0.05517578,0.10498047,-0.28320313,0.9511719
17/07/11 05:07:05:313,3589,-0.2331543,0.040283203,0.90649414,-0.04789013,0.0010642251,-1.389878,0.05517578,0.10498047,-0.28320313,0.9511719
17/07/11 05:07:05:318,3594,-0.22851563,0.024658203,0.9050293,-0.05001858,0.012770701,-1.4537315,0.05517578,0.10498047,-0.28320313,0.9511719
17/07/11 05:07:05:326,3602,-0.22851563,0.024658203,0.9050293,-0.05001858,0.012770701,-1.4537315,0.05517578,0.10498047,-0.28320313,0.9511719
17/07/11 05:07:05:332,3608,-0.22851563,0.024658203,0.9050293,-0.05001858,0.012770701,-1.4537315,0.05517578,0.10498047,-0.28320313,0.9511719
17/07/11 05:07:05:337,3613,-0.22851563,0.024658203,0.9050293,-0.05001858,0.012770701,-1.4537315,0.05517578,0.10498047,-0.28320313,0.9511719
17/07/11 05:07:05:344,3620,-0.10913086,0.036865234,0.90893555,-0.05214703,-0.046825904,-1.990101,0.03466797,0.05419922,-0.28173828,0.95703125
17/07/11 05:07:05:357,3633,-0.10913086,0.036865234,0.90893555,-0.05214703,-0.046825904,-1.990101,0.03466797,0.05419922,-0.28173828,0.95703125
17/07/11 05:07:05:362,3638,-0.10913086,0.036865234,0.90893555,-0.05214703,-0.046825904,-1.990101,0.03466797,0.05419922,-0.28173828,0.95703125
17/07/11 05:07:05:372,3648,-0.10913086,0.036865234,0.90893555,-0.05214703,-0.046825904,-1.990101,0.03466797,0.05419922,-0.28173828,0.95703125
17/07/11 05:07:05:377,3653,-0.10913086,0.036865234,0.90893555,-0.05214703,-0.046825904,-1.990101,0.03466797,0.05419922,-0.28173828,0.95703125
17/07/11 05:07:05:383,3659,-0.10913086,0.036865234,0.90893555,-0.05214703,-0.046825904,-1.990101,0.03466797,0.05419922,-0.28173828,0.95703125
17/07/11 05:07:05:388,3664,-0.10913086,0.036865234,0.90893555,-0.05214703,-0.046825904,-1.990101,0.03466797,0.05419922,-0.28173828,0.95703125
17/07/11 05:07:05:393,3669,-0.10913086,0.036865234,0.90893555,-0.05214703,-0.046825904,-1.990101,0.03466797,0.05419922,-0.28173828,0.95703125
17/07/11 05:07:05:398,3674,-0.10913086,0.036865234,0.90893555,-0.05214703,-0.046825904,-1.990101,0.03466797,0.05419922,-0.28173828,0.95703125
17/07/11 05:07:05:406,3682,0.06689453,0.009521484,0.89453125,-0.07875266,0.05001858,-2.2252946,0.019042969,-0.0029296875,-0.28027344,0.95947266
17/07/11 05:07:05:415,3691,0.06689453,0.009521484,0.89453125,-0.07875266,0.05001858,-2.2252946,0.019042969,-0.0029296875,-0.28027344,0.95947266
17/07/11 05:07:05:421,3697,0.06689453,0.009521484,0.89453125,-0.07875266,0.05001858,-2.2252946,0.019042969,-0.0029296875,-0.28027344,0.95947266
17/07/11 05:07:05:426,3702,0.09741211,0.017333984,0.907959,-0.053211257,0.057468154,-2.1965606,0.013671875,-0.015625,-0.27978516,0.95947266
17/07/11 05:07:05:431,3707,0.09741211,0.017333984,0.907959,-0.053211257,0.057468154,-2.1965606,0.013671875,-0.015625,-0.27978516,0.95947266
17/07/11 05:07:05:436,3712,0.09741211,0.017333984,0.907959,-0.053211257,0.057468154,-2.1965606,0.013671875,-0.015625,-0.27978516,0.95947266
17/07/11 05:07:05:441,3717,0.09741211,0.017333984,0.907959,-0.053211257,0.057468154,-2.1965606,0.013671875,-0.015625,-0.27978516,0.95947266
17/07/11 05:07:05:446,3722,0.1496582,0.02319336,0.89941406,-0.032990977,0.3096895,-2.0305414,-0.00390625,-0.072265625,-0.27294922,0.9589844
17/07/11 05:07:05:453,3729,0.23950195,0.041992188,0.8942871,-0.008513801,0.3469374,-2.03267,-0.00390625,-0.072265625,-0.27294922,0.9589844
17/07/11 05:07:05:460,3736,0.23950195,0.041992188,0.8942871,-0.008513801,0.3469374,-2.03267,-0.00390625,-0.072265625,-0.27294922,0.9589844
17/07/11 05:07:05:466,3742,0.24804688,-0.02319336,0.8847656,0.030862529,0.46293792,-1.9922293,-0.017578125,-0.106933594,-0.265625,0.9580078
17/07/11 05:07:05:472,3748,0.2849121,0.010986328,0.8781738,0.088330686,0.5502044,-1.990101,-0.020996094,-0.11621094,-0.2626953,0.95751953
17/07/11 05:07:05:477,3753,0.2849121,0.010986328,0.8781738,0.088330686,0.5502044,-1.990101,-0.020996094,-0.11621094,-0.2626953,0.95751953
17/07/11 05:07:05:483,3759,0.2849121,0.010986328,0.8781738,0.088330686,0.5502044,-1.990101,-0.020996094,-0.11621094,-0.2626953,0.95751953
17/07/11 05:07:05:488,3764,0.2849121,0.010986328,0.8781738,0.088330686,0.5502044,-1.990101,-0.020996094,-0.11621094,-0.2626953,0.95751953
17/07/11 05:07:05:493,3769,0.2849121,0.010986328,0.8781738,0.088330686,0.5502044,-1.990101,-0.020996094,-0.11621094,-0.2626953,0.95751953
17/07/11 05:07:05:499,3775,0.30126953,-0.036865234,0.87646484,0.11067941,0.6491773,-1.9688164,-0.024902344,-0.12841797,-0.25878906,0.95703125
17/07/11 05:07:05:514,3790,0.30126953,-0.036865234,0.87646484,0.11067941,0.6491773,-1.9688164,-0.024902344,-0.12841797,-0.25878906,0.95703125
17/07/11 05:07:05:521,3797,0.30126953,-0.036865234,0.87646484,0.11067941,0.6491773,-1.9688164,-0.024902344,-0.12841797,-0.25878906,0.95703125
17/07/11 05:07:05:528,3804,0.35913086,0.016845703,0.8703613,0.20645967,0.83115983,-1.9390181,-0.033691406,-0.14941406,-0.24951172,0.9560547
17/07/11 05:07:05:538,3814,0.42211914,-0.053466797,0.84350586,0.39695597,1.2036386,-1.8176965,-0.045410156,-0.18945313,-0.22607422,0.95410156
17/07/11 05:07:05:543,3819,0.43774414,-0.037597656,0.8183594,0.4799655,1.3100611,-1.7910908,-0.048339844,-0.19873047,-0.21875,0.95410156
17/07/11 05:07:05:554,3830,0.43774414,-0.037597656,0.8183594,0.4799655,1.3100611,-1.7910908,-0.048339844,-0.19873047,-0.21875,0.95410156
17/07/11 05:07:05:560,3836,0.46923828,-0.040771484,0.8251953,0.5587182,1.4122267,-1.7623568,-0.048339844,-0.19873047,-0.21875,0.95410156
17/07/11 05:07:05:565,3841,0.46923828,-0.040771484,0.8251953,0.5587182,1.4122267,-1.7623568,-0.05078125,-0.20800781,-0.2109375,0.9536133
17/07/11 05:07:05:570,3846,0.4794922,-0.047607422,0.8129883,0.6364066,1.5143924,-1.7251089,-0.052246094,-0.21777344,-0.20214844,0.953125
17/07/11 05:07:05:575,3851,0.4794922,-0.047607422,0.8129883,0.6364066,1.5143924,-1.7251089,-0.052246094,-0.21777344,-0.20214844,0.953125
17/07/11 05:07:05:581,3857,0.5114746,-0.045898438,0.81518555,0.71835196,1.6154937,-1.6825399,-0.053222656,-0.22558594,-0.19335938,0.953125
17/07/11 05:07:05:586,3862,0.5114746,-0.045898438,0.81518555,0.71835196,1.6154937,-1.6825399,-0.053222656,-0.22558594,-0.19335938,0.953125
17/07/11 05:07:05:592,3868,0.52441406,-0.033691406,0.8078613,0.80455416,1.7176594,-1.6197506,-0.05419922,-0.23486328,-0.18359375,0.9526367
17/07/11 05:07:05:598,3874,0.5292969,-0.028076172,0.7988281,0.8822426,1.8027973,-1.550576,-0.05419922,-0.24267578,-0.17333984,0.9526367
17/07/11 05:07:05:603,3879,0.5292969,-0.028076172,0.7988281,0.8822426,1.8027973,-1.550576,-0.05419922,-0.24267578,-0.17333984,0.9526367
17/07/11 05:07:05:608,3884,0.56274414,-0.032470703,0.79467773,0.950353,1.8666508,-1.484594,-0.05419922,-0.24267578,-0.17333984,0.9526367
17/07/11 05:07:05:613,3889,0.56274414,-0.032470703,0.79467773,0.950353,1.8666508,-1.484594,-0.05419922,-0.25,-0.16259766,0.9526367
17/07/11 05:07:05:619,3895,0.56274414,-0.032470703,0.79467773,0.950353,1.8666508,-1.484594,-0.05419922,-0.25,-0.16259766,0.9526367
17/07/11 05:07:05:624,3900,0.56274414,-0.032470703,0.79467773,0.950353,1.8666508,-1.484594,-0.05419922,-0.25,-0.16259766,0.9526367
17/07/11 05:07:05:629,3905,0.56274414,-0.032470703,0.79467773,0.950353,1.8666508,-1.484594,-0.05419922,-0.25,-0.16259766,0.9526367
17/07/11 05:07:05:634,3910,0.56274414,-0.032470703,0.79467773,0.950353,1.8666508,-1.484594,-0.05419922,-0.25,-0.16259766,0.9526367
17/07/11 05:07:05:639,3915,0.56274414,-0.032470703,0.79467773,0.950353,1.8666508,-1.484594,-0.05419922,-0.25,-0.16259766,0.9526367
17/07/11 05:07:05:644,3920,0.56274414,-0.032470703,0.79467773,0.950353,1.8666508,-1.484594,-0.05419922,-0.25,-0.16259766,0.9526367
17/07/11 05:07:05:659,3935,0.6538086,-0.03125,0.7558594,1.267492,2.103973,-1.0195277,-0.048828125,-0.28564453,-0.10449219,0.9511719
17/07/11 05:07:05:669,3945,0.6538086,-0.03125,0.7558594,1.267492,2.103973,-1.0195277,-0.048828125,-0.28564453,-0.10449219,0.9511719
17/07/11 05:07:05:674,3950,0.6538086,-0.03125,0.7558594,1.267492,2.103973,-1.0195277,-0.048828125,-0.28564453,-0.10449219,0.9511719
17/07/11 05:07:05:686,3962,0.65234375,-0.018554688,0.7675781,1.3249602,2.1454778,-0.9067198,-0.048828125,-0.28564453,-0.10449219,0.9511719
17/07/11 05:07:05:693,3969,0.6513672,-0.0026855469,0.7409668,1.4558599,2.2359369,-0.59596604,-0.038085938,-0.3017578,-0.052734375,0.9511719
17/07/11 05:07:05:702,3978,0.65600586,4.8828125E-4,0.74365234,1.4952363,2.2721205,-0.5289199,-0.038085938,-0.3017578,-0.052734375,0.9511719
17/07/11 05:07:05:715,3991,0.65478516,-0.0053710938,0.7363281,1.5282272,2.302983,-0.46400213,-0.03125,-0.3076172,-0.025878906,0.9506836
17/07/11 05:07:05:727,4003,0.66137695,-0.020263672,0.734375,1.5622824,2.325332,-0.39802018,-0.02734375,-0.3095703,-0.012207031,0.9501953
17/07/11 05:07:05:732,4008,0.66137695,-0.020263672,0.734375,1.5622824,2.325332,-0.39802018,-0.02734375,-0.3095703,-0.012207031,0.9501953
17/07/11 05:07:05:738,4014,0.6699219,0.0017089844,0.720459,1.6208148,2.3764145,-0.32884556,-0.023925781,-0.31103516,0.0014648438,0.94970703
17/07/11 05:07:05:744,4020,0.6672363,-0.016357422,0.72875977,1.7783202,2.5562687,-0.11067941,-0.011230469,-0.31396484,0.044921875,0.9482422
17/07/11 05:07:05:770,4046,0.6672363,-0.016357422,0.72875977,1.7783202,2.5562687,-0.11067941,-0.011230469,-0.31396484,0.044921875,0.9482422
17/07/11 05:07:05:775,4051,0.6672363,-0.016357422,0.72875977,1.7783202,2.5562687,-0.11067941,-0.011230469,-0.31396484,0.044921875,0.9482422
17/07/11 05:07:05:782,4058,0.65893555,-0.0041503906,0.70336914,1.8283387,2.628636,-0.05853238,-0.0073242188,-0.31347656,0.060546875,0.9472656
17/07/11 05:07:05:786,4062,0.65893555,-0.0041503906,0.70336914,1.8283387,2.628636,-0.05853238,-0.0073242188,-0.31347656,0.060546875,0.9472656
17/07/11 05:07:05:794,4070,0.65893555,-0.0041503906,0.70336914,1.8283387,2.628636,-0.05853238,-0.0073242188,-0.31347656,0.060546875,0.9472656
17/07/11 05:07:05:799,4075,0.65893555,-0.0041503906,0.70336914,1.8283387,2.628636,-0.05853238,-0.0073242188,-0.31347656,0.060546875,0.9472656
17/07/11 05:07:05:810,4086,0.7192383,-0.041015625,0.66308594,1.9060272,2.7786918,0.15750532,0.0126953125,-0.31835938,0.10595703,0.94189453
17/07/11 05:07:05:818,4094,0.69433594,-0.009033203,0.6994629,2.0901382,2.8957565,0.66407645,0.021972656,-0.32226563,0.13916016,0.93603516
17/07/11 05:07:05:843,4119,0.69433594,-0.009033203,0.6994629,2.0901382,2.8957565,0.66407645,0.021972656,-0.32226563,0.13916016,0.93603516
17/07/11 05:07:05:851,4127,0.69433594,-0.009033203,0.6994629,2.0901382,2.8957565,0.66407645,0.021972656,-0.32226563,0.13916016,0.93603516
17/07/11 05:07:05:856,4132,0.7285156,0.040527344,0.7285156,2.0975876,2.945775,0.7662421,0.028808594,-0.3232422,0.15527344,0.93310547
17/07/11 05:07:05:866,4142,0.6958008,0.1550293,0.7668457,1.7314942,2.7691138,1.1163721,0.056640625,-0.30371094,0.21679688,0.92529297
17/07/11 05:07:05:881,4157,0.55444336,0.107421875,0.7746582,1.593145,2.6243792,1.2600425,0.0625,-0.30371094,0.21679688,0.92529297
17/07/11 05:07:05:887,4163,0.55444336,0.107421875,0.7746582,1.593145,2.6243792,1.2600425,0.0625,-0.30371094,0.21679688,0.92529297
17/07/11 05:07:05:892,4168,0.55444336,0.107421875,0.7746582,1.593145,2.6243792,1.2600425,0.0625,-0.30371094,0.21679688,0.92529297
17/07/11 05:07:05:898,4174,0.55444336,0.107421875,0.7746582,1.593145,2.6243792,1.2600425,0.0625,-0.30371094,0.21679688,0.92529297
17/07/11 05:07:05:904,4180,0.55444336,0.107421875,0.7746582,1.593145,2.6243792,1.2600425,0.0625,-0.30371094,0.21679688,0.92529297
17/07/11 05:07:05:910,4186,0.59814453,0.107910156,0.7663574,1.4771445,2.4764519,1.3015473,0.0625,-0.30371094,0.22998047,0.9248047
17/07/11 05:07:05:921,4197,0.54541016,0.10986328,0.80444336,1.091895,2.0103211,1.4526672,0.080566406,-0.26953125,0.26904297,0.92089844
17/07/11 05:07:05:928,4204,0.48999023,0.12548828,0.80859375,0.99185777,1.8570728,1.5048143,0.084472656,-0.26123047,0.27978516,0.9199219
17/07/11 05:07:05:935,4211,0.4794922,0.119628906,0.82006836,0.87585723,1.7038244,1.5431263,0.087402344,-0.25146484,0.29003906,0.9189453
17/07/11 05:07:05:940,4216,0.4794922,0.119628906,0.82006836,0.87585723,1.7038244,1.5431263,0.087402344,-0.25146484,0.29003906,0.9189453
17/07/11 05:07:05:945,4221,0.4794922,0.119628906,0.82006836,0.87585723,1.7038244,1.5431263,0.087402344,-0.25146484,0.29003906,0.9189453
17/07/11 05:07:05:950,4226,0.5209961,0.06982422,0.8144531,0.770499,1.5707963,1.5825027,0.087402344,-0.24316406,0.2998047,0.91796875
17/07/11 05:07:05:958,4234,0.49780273,0.09887695,0.81933594,0.694939,1.4484104,1.6527416,0.08935547,-0.23583984,0.30810547,0.9169922
17/07/11 05:07:05:963,4239,0.48779297,0.0949707,0.8293457,0.60447985,1.3366667,1.7325585,0.08984375,-0.22753906,0.31640625,0.9160156
17/07/11 05:07:05:971,4247,0.48779297,0.0949707,0.8293457,0.60447985,1.3366667,1.7325585,0.08984375,-0.22753906,0.31640625,0.9160156
17/07/11 05:07:05:976,4252,0.48779297,0.0949707,0.8293457,0.60447985,1.3366667,1.7325585,0.08984375,-0.22753906,0.31640625,0.9160156
17/07/11 05:07:05:982,4258,0.47729492,0.05908203,0.8366699,0.53211254,1.2525929,1.8294029,0.088378906,-0.21875,0.32470703,0.91552734
17/07/11 05:07:05:987,4263,0.47729492,0.05908203,0.8366699,0.53211254,1.2525929,1.8294029,0.088378906,-0.21875,0.32470703,0.91552734
17/07/11 05:07:05:992,4268,0.43920898,0.06347656,0.8417969,0.4842224,1.1940606,1.9347613,0.087890625,-0.20996094,0.33203125,0.91503906
17/07/11 05:07:05:998,4274,0.4128418,0.06298828,0.85009766,0.43739653,1.1419135,2.0252204,0.08691406,-0.20019531,0.3388672,0.91503906
17/07/11 05:07:06:003,4279,0.4128418,0.06298828,0.85009766,0.43739653,1.1419135,2.0252204,0.08691406,-0.20019531,0.3388672,0.91503906
17/07/11 05:07:06:008,4284,0.4008789,0.049560547,0.8503418,0.3948275,1.1067941,2.1092942,0.0859375,-0.1899414,0.34570313,0.9145508
17/07/11 05:07:06:013,4289,0.4008789,0.049560547,0.8503418,0.3948275,1.1067941,2.1092942,0.0859375,-0.1899414,0.34570313,0.9145508
17/07/11 05:07:06:019,4295,0.4008789,0.049560547,0.8503418,0.3948275,1.1067941,2.1092942,0.0859375,-0.1899414,0.34570313,0.9145508
17/07/11 05:07:06:028,4304,0.38476563,0.045166016,0.859375,0.35970807,1.0908307,2.274249,0.080078125,-0.1694336,0.35888672,0.9140625
17/07/11 05:07:06:034,4310,0.31054688,0.041503906,0.85717773,0.27457008,1.0046285,2.3476806,0.078125,-0.15771484,0.36523438,0.9140625
17/07/11 05:07:06:047,4323,0.31054688,0.041503906,0.85717773,0.27457008,1.0046285,2.3476806,0.078125,-0.15771484,0.36523438,0.9140625
17/07/11 05:07:06:055,4331,0.31054688,0.041503906,0.85717773,0.27457008,1.0046285,2.3476806,0.078125,-0.15771484,0.36523438,0.9140625
17/07/11 05:07:06:060,4336,0.31054688,0.041503906,0.85717773,0.27457008,1.0046285,2.3476806,0.078125,-0.15771484,0.36523438,0.9140625
17/07/11 05:07:06:066,4342,0.31054688,0.041503906,0.85717773,0.27457008,1.0046285,2.3476806,0.078125,-0.15771484,0.36523438,0.9140625
17/07/11 05:07:06:072,4348,0.28979492,0.0703125,0.87841797,0.23945065,0.940775,2.4008918,0.078125,-0.14404297,0.37109375,0.9140625
17/07/11 05:07:06:077,4353,0.21264648,0.020507813,0.86938477,0.127707,0.7417649,2.5701036,0.06982422,-0.119140625,0.38232422,0.9135742
17/07/11 05:07:06:083,4359,0.19799805,0.045410156,0.8898926,0.11174364,0.70770967,2.60948,0.06640625,-0.10595703,0.38720703,0.91308594
17/07/11 05:07:06:091,4367,0.19799805,0.045410156,0.8898926,0.11174364,0.70770967,2.60948,0.057128906,-0.09326172,0.39257813,0.91308594
17/07/11 05:07:06:096,4372,0.19799805,0.045410156,0.8898926,0.11174364,0.70770967,2.60948,0.057128906,-0.09326172,0.39257813,0.91308594
17/07/11 05:07:06:101,4377,0.123291016,0.095947266,0.8786621,0.09684449,0.65449846,2.6275718,0.057128906,-0.080078125,0.39697266,0.91259766
17/07/11 05:07:06:106,4382,0.123291016,0.095947266,0.8786621,0.09684449,0.65449846,2.6275718,0.053710938,-0.080078125,0.39697266,0.91259766
17/07/11 05:07:06:111,4387,0.068359375,0.041748047,0.8913574,0.051082805,0.5512686,2.5967093,0.05029297,-0.063964844,0.4008789,0.9121094
17/07/11 05:07:06:118,4394,0.036621094,0.014892578,0.8942871,0.027669853,0.4107909,2.5615897,0.04296875,-0.047851563,0.40429688,0.9121094
17/07/11 05:07:06:123,4399,0.036621094,0.014892578,0.8942871,0.027669853,0.4107909,2.5615897,0.04296875,-0.047851563,0.40429688,0.9121094
17/07/11 05:07:06:131,4407,0.0048828125,0.024902344,0.8955078,0.013834926,0.27031317,2.5275347,0.036132813,-0.034179688,0.40771484,0.9116211
17/07/11 05:07:06:136,4412,0.0048828125,0.024902344,0.8955078,0.013834926,0.27031317,2.5275347,0.036132813,-0.034179688,0.40771484,0.9116211
17/07/11 05:07:06:141,4417,0.0048828125,0.024902344,0.8955078,0.013834926,0.27031317,2.5275347,0.036132813,-0.034179688,0.40771484,0.9116211
17/07/11 05:07:06:147,4423,-0.022705078,-0.0024414063,0.90185547,-0.021284502,0.022348728,2.4381397,0.023925781,-0.0073242188,0.4111328,0.9111328
17/07/11 05:07:06:153,4429,-0.022705078,-0.0024414063,0.90185547,-0.021284502,0.022348728,2.4381397,0.023925781,-0.0073242188,0.4111328,0.9111328
17/07/11 05:07:06:159,4435,-0.09692383,-0.009033203,0.90283203,-0.026605628,-0.10855096,2.316818,0.0063476563,0.020019531,0.41259766,0.91064453
17/07/11 05:07:06:173,4449,-0.09692383,-0.009033203,0.90283203,-0.026605628,-0.10855096,2.316818,0.0063476563,0.020019531,0.41259766,0.91064453
17/07/11 05:07:06:178,4454,-0.14038086,-0.034179688,0.8835449,-0.0074495757,-0.14686306,2.2380655,0.0,0.032714844,0.41259766,0.91015625
17/07/11 05:07:06:183,4459,-0.14038086,-0.034179688,0.8835449,-0.0074495757,-0.14686306,2.2380655,0.0,0.032714844,0.41259766,0.91015625
17/07/11 05:07:06:188,4464,-0.14038086,-0.034179688,0.8835449,-0.0074495757,-0.14686306,2.2380655,0.0,0.032714844,0.41259766,0.91015625
17/07/11 05:07:06:193,4469,-0.14038086,-0.034179688,0.8835449,-0.0074495757,-0.14686306,2.2380655,0.0,0.032714844,0.41259766,0.91015625
17/07/11 05:07:06:199,4475,-0.14038086,-0.034179688,0.8835449,-0.0074495757,-0.14686306,2.2380655,0.0,0.032714844,0.41259766,0.91015625
17/07/11 05:07:06:204,4480,-0.14038086,-0.034179688,0.8835449,-0.0074495757,-0.14686306,2.2380655,0.0,0.032714844,0.41259766,0.91015625
17/07/11 05:07:06:209,4485,-0.14038086,-0.034179688,0.8835449,-0.0074495757,-0.14686306,2.2380655,0.0,0.032714844,0.41259766,0.91015625
17/07/11 05:07:06:214,4490,-0.20507813,-0.049072266,0.87768555,-0.038312104,-0.3852495,1.943275,-0.014160156,0.07421875,0.41064453,0.9082031
17/07/11 05:07:06:219,4495,-0.20507813,-0.049072266,0.87768555,-0.038312104,-0.3852495,1.943275,-0.014160156,0.07421875,0.41064453,0.9082031
17/07/11 05:07:06:225,4501,-0.18530273,0.040771484,0.9189453,0.040440552,-0.5597824,1.7506503,-0.03125,0.1015625,0.40673828,0.90722656
17/07/11 05:07:06:230,4506,-0.18530273,0.040771484,0.9189453,0.040440552,-0.5597824,1.7506503,-0.03125,0.1015625,0.40673828,0.90722656
17/07/11 05:07:06:236,4512,-0.18530273,0.040771484,0.9189453,0.040440552,-0.5597824,1.7506503,-0.03125,0.1015625,0.40673828,0.90722656
17/07/11 05:07:06:243,4519,-0.19799805,-0.068847656,0.8947754,0.048954353,-0.69706744,1.7048886,-0.033203125,0.10986328,0.40478516,0.90722656
17/07/11 05:07:06:254,4530,-0.19799805,-0.068847656,0.8947754,0.048954353,-0.69706744,1.7048886,-0.033203125,0.10986328,0.40478516,0.90722656
17/07/11 05:07:06:260,4536,-0.19799805,-0.068847656,0.8947754,0.048954353,-0.69706744,1.7048886,-0.033203125,0.10986328,0.40478516,0.90722656
17/07/11 05:07:06:269,4545,-0.19799805,-0.068847656,0.8947754,0.048954353,-0.69706744,1.7048886,-0.033203125,0.10986328,0.40478516,0.90722656
17/07/11 05:07:06:274,4550,-0.21777344,-0.018066406,0.9020996,0.13728504,-0.813068,1.6814756,-0.033203125,0.10986328,0.40478516,0.90722656
17/07/11 05:07:06:283,4559,-0.27246094,-0.010986328,0.88793945,0.2075239,-0.9865367,1.4920436,-0.064453125,0.14453125,0.38330078,0.90966797
17/07/11 05:07:06:299,4575,-0.25830078,0.029296875,0.8737793,0.21923037,-0.87585723,1.4803371,-0.068847656,0.1640625,0.37060547,0.9111328
17/07/11 05:07:06:330,4606,-0.3269043,0.033447266,0.85131836,0.26499206,-0.86415076,1.4718233,-0.06982422,0.17578125,0.36328125,0.9121094
17/07/11 05:07:06:346,4622,-0.3269043,0.033447266,0.85131836,0.26499206,-0.86415076,1.4718233,-0.06982422,0.17578125,0.36328125,0.9121094
17/07/11 05:07:06:351,4627,-0.31860352,-0.0073242188,0.8930664,0.30223992,-0.93013275,1.470759,-0.0703125,0.18310547,0.359375,0.9121094
17/07/11 05:07:06:357,4633,-0.31860352,-0.0073242188,0.8930664,0.30223992,-0.93013275,1.470759,-0.0703125,0.18310547,0.359375,0.9121094
17/07/11 05:07:06:363,4639,-0.29785156,-0.028320313,0.8625488,0.3267171,-0.99824315,1.4867225,-0.072265625,0.1875,0.35498047,0.91259766
17/07/11 05:07:06:368,4644,-0.29785156,-0.028320313,0.8625488,0.3267171,-0.99824315,1.4867225,-0.072265625,0.1875,0.35498047,0.91259766
17/07/11 05:07:06:373,4649,-0.33081055,-0.03930664,0.8540039,0.3852495,-1.0748674,1.5346125,-0.07470703,0.1928711,0.35009766,0.91308594
17/07/11 05:07:06:378,4654,-0.33081055,-0.03930664,0.8540039,0.3852495,-1.0748674,1.5346125,-0.07470703,0.1928711,0.35009766,0.91308594
17/07/11 05:07:06:383,4659,-0.37841797,-0.030517578,0.82714844,0.43526807,-1.1344639,1.5761174,-0.07763672,0.19921875,0.34472656,0.9135742
17/07/11 05:07:06:389,4665,-0.4050293,0.0048828125,0.83935547,0.50231427,-1.1983174,1.6218791,-0.08300781,0.2055664,0.3383789,0.9140625
17/07/11 05:07:06:394,4670,-0.4050293,0.0048828125,0.83935547,0.50231427,-1.1983174,1.6218791,-0.08300781,0.2055664,0.3383789,0.9140625
17/07/11 05:07:06:399,4675,-0.41674805,-0.0234375,0.82714844,0.5129565,-1.2313085,1.6420994,-0.083496094,0.21484375,0.33251953,0.9140625
17/07/11 05:07:06:405,4681,-0.41674805,-0.0234375,0.82714844,0.5129565,-1.2313085,1.6420994,-0.083496094,0.21484375,0.33251953,0.9140625
17/07/11 05:07:06:410,4686,-0.41674805,-0.0234375,0.82714844,0.5129565,-1.2313085,1.6420994,-0.083496094,0.21484375,0.33251953,0.9140625
17/07/11 05:07:06:415,4691,-0.4555664,-0.037597656,0.8041992,0.5502044,-1.2547214,1.6516774,-0.08691406,0.22265625,0.3256836,0.9145508
17/07/11 05:07:06:421,4697,-0.4699707,-0.029296875,0.82250977,0.5970303,-1.2685564,1.6186863,-0.08691406,0.22265625,0.3256836,0.9145508
17/07/11 05:07:06:427,4703,-0.4699707,-0.029296875,0.82250977,0.5970303,-1.2685564,1.6186863,-0.09033203,0.23242188,0.31884766,0.9140625
17/07/11 05:07:06:433,4709,-0.4699707,-0.029296875,0.82250977,0.5970303,-1.2685564,1.6186863,-0.09033203,0.23242188,0.31884766,0.9140625
17/07/11 05:07:06:438,4714,-0.4699707,-0.029296875,0.82250977,0.5970303,-1.2685564,1.6186863,-0.09033203,0.23242188,0.31884766,0.9140625
17/07/11 05:07:06:443,4719,-0.4699707,-0.029296875,0.82250977,0.5970303,-1.2685564,1.6186863,-0.09033203,0.23242188,0.31884766,0.9140625
17/07/11 05:07:06:448,4724,-0.4699707,-0.029296875,0.82250977,0.5970303,-1.2685564,1.6186863,-0.09033203,0.23242188,0.31884766,0.9140625
17/07/11 05:07:06:453,4729,-0.51000977,-0.01928711,0.80200195,0.62576437,-1.2664279,1.5516402,-0.09033203,0.23242188,0.31884766,0.9140625
17/07/11 05:07:06:460,4736,-0.55688477,-0.013916016,0.7885742,0.6576911,-1.2525929,1.2185377,-0.09716797,0.2685547,0.2915039,0.91259766
17/07/11 05:07:06:466,4742,-0.55688477,-0.013916016,0.7885742,0.6576911,-1.2525929,1.2185377,-0.09716797,0.2685547,0.2915039,0.91259766
17/07/11 05:07:06:471,4747,-0.54956055,-0.008544922,0.78637695,0.69281054,-1.2749417,1.1302071,-0.09765625,0.27685547,0.28515625,0.9121094
17/07/11 05:07:06:479,4755,-0.54956055,-0.008544922,0.78637695,0.69281054,-1.2749417,1.1302071,-0.09765625,0.27685547,0.28515625,0.9121094
17/07/11 05:07:06:485,4761,-0.54956055,-0.008544922,0.78637695,0.69281054,-1.2749417,1.1302071,-0.09765625,0.27685547,0.28515625,0.9121094
17/07/11 05:07:06:490,4766,-0.54956055,-0.008544922,0.78637695,0.69281054,-1.2749417,1.1302071,-0.09765625,0.27685547,0.28515625,0.9121094
17/07/11 05:07:06:496,4772,-0.54956055,-0.008544922,0.78637695,0.69281054,-1.2749417,1.1302071,-0.09765625,0.27685547,0.28515625,0.9121094
17/07/11 05:07:06:502,4778,-0.5708008,0.0061035156,0.7819824,0.72367305,-1.2994188,1.0599682,-0.09814453,0.2836914,0.2783203,0.9121094
17/07/11 05:07:06:508,4784,-0.59472656,-0.008300781,0.7692871,0.7758201,-1.333474,0.9067198,-0.09667969,0.29736328,0.26464844,0.9121094
17/07/11 05:07:06:523,4799,-0.62719727,-0.016845703,0.7573242,0.87904996,-1.4420251,0.73218685,-0.09667969,0.3095703,0.25048828,0.9121094
17/07/11 05:07:06:528,4804,-0.642334,-0.020751953,0.7597656,0.9556741,-1.5356768,0.6225717,-0.095703125,0.31445313,0.24267578,0.91259766
17/07/11 05:07:06:533,4809,-0.642334,-0.020751953,0.7597656,0.9556741,-1.5356768,0.6225717,-0.095703125,0.31445313,0.24267578,0.91259766
17/07/11 05:07:06:540,4816,-0.6557617,-0.022705078,0.7578125,1.0365553,-1.6442277,0.49060777,-0.09472656,0.31884766,0.234375,0.91308594
17/07/11 05:07:06:547,4823,-0.6464844,-0.037109375,0.7416992,1.1270144,-1.7559714,0.3480016,-0.09375,0.3227539,0.22509766,0.9140625
17/07/11 05:07:06:556,4832,-0.65063477,-0.009765625,0.7446289,1.2355653,-1.8634582,0.21603769,-0.09277344,0.32714844,0.21582031,0.91503906
17/07/11 05:07:06:563,4839,-0.65063477,-0.009765625,0.7446289,1.2355653,-1.8634582,0.21603769,-0.09277344,0.32714844,0.21582031,0.91503906
17/07/11 05:07:06:568,4844,-0.642334,-0.0063476563,0.75097656,1.314318,-1.9698807,0.10429406,-0.08984375,0.3305664,0.2055664,0.9165039
17/07/11 05:07:06:575,4851,-0.6123047,-0.0024414063,0.7380371,1.3632723,-2.0507617,0.011706476,-0.08642578,0.33251953,0.1953125,0.91845703
17/07/11 05:07:06:580,4856,-0.6123047,-0.0024414063,0.7380371,1.3632723,-2.0507617,0.011706476,-0.08642578,0.33251953,0.1953125,0.91845703
17/07/11 05:07:06:585,4861,-0.6123047,-0.0024414063,0.7380371,1.3632723,-2.0507617,0.011706476,-0.08642578,0.33251953,0.1953125,0.91845703
17/07/11 05:07:06:591,4867,-0.58374023,-0.013671875,0.74609375,1.4196763,-2.1486704,-0.030862529,-0.08203125,0.3334961,0.1850586,0.92041016
17/07/11 05:07:06:597,4873,-0.58813477,-0.0063476563,0.751709,1.4718233,-2.2348728,-0.037247878,-0.078125,0.3330078,0.17333984,0.92333984
17/07/11 05:07:06:602,4878,-0.58813477,-0.0063476563,0.751709,1.4718233,-2.2348728,-0.037247878,-0.078125,0.3330078,0.17333984,0.92333984
17/07/11 05:07:06:607,4883,-0.58813477,-0.0063476563,0.751709,1.4718233,-2.2348728,-0.037247878,-0.078125,0.3330078,0.17333984,0.92333984
17/07/11 05:07:06:612,4888,-0.58813477,-0.0063476563,0.751709,1.4718233,-2.2348728,-0.037247878,-0.078125,0.3330078,0.17333984,0.92333984
17/07/11 05:07:06:618,4894,-0.58813477,-0.0063476563,0.751709,1.4718233,-2.2348728,-0.037247878,-0.078125,0.3330078,0.17333984,0.92333984
17/07/11 05:07:06:623,4899,-0.58813477,-0.0063476563,0.751709,1.4718233,-2.2348728,-0.037247878,-0.078125,0.3330078,0.17333984,0.92333984
17/07/11 05:07:06:628,4904,-0.58813477,-0.0063476563,0.751709,1.4718233,-2.2348728,-0.037247878,-0.078125,0.3330078,0.17333984,0.92333984
17/07/11 05:07:06:634,4910,-0.58813477,-0.0063476563,0.751709,1.4718233,-2.2348728,-0.037247878,-0.078125,0.3330078,0.17333984,0.92333984
17/07/11 05:07:06:640,4916,-0.5529785,-0.030761719,0.767334,1.5165207,-2.3040473,-0.04576168,-0.07470703,0.3334961,0.1616211,0.92578125
17/07/11 05:07:06:646,4922,-0.55322266,-0.037109375,0.7692871,1.8826143,-2.7382512,-0.042569004,-0.052734375,0.33203125,0.09423828,0.9370117
17/07/11 05:07:06:659,4935,-0.55322266,-0.037109375,0.7692871,1.8826143,-2.7382512,-0.042569004,-0.052734375,0.33203125,0.09423828,0.9370117
17/07/11 05:07:06:664,4940,-0.55322266,-0.037109375,0.7692871,1.8826143,-2.7382512,-0.042569004,-0.052734375,0.33203125,0.09423828,0.9370117
17/07/11 05:07:06:671,4947,-0.55322266,-0.037109375,0.7692871,1.8826143,-2.7382512,-0.042569004,-0.052734375,0.33203125,0.09423828,0.9370117
17/07/11 05:07:06:677,4953,-0.6713867,0.080322266,0.73168945,1.9124125,-2.7701778,-0.032990977,-0.048339844,0.32958984,0.07861328,0.9394531
17/07/11 05:07:06:694,4970,-0.6713867,0.080322266,0.73168945,1.9124125,-2.7701778,-0.032990977,-0.048339844,0.32958984,0.07861328,0.9394531
17/07/11 05:07:06:700,4976,-0.576416,0.05493164,0.74072266,1.871972,-2.859573,-0.053211257,-0.023925781,0.3359375,0.03515625,0.94091797
17/07/11 05:07:06:707,4983,-0.560791,0.068115234,0.7470703,1.8251461,-2.7680495,-0.041504778,-0.018066406,0.3359375,0.01953125,0.94140625
17/07/11 05:07:06:712,4988,-0.560791,0.068115234,0.7470703,1.8251461,-2.7680495,-0.041504778,-0.018066406,0.3359375,0.01953125,0.94140625
17/07/11 05:07:06:718,4994,-0.56469727,0.1171875,0.74316406,1.786834,-2.6467278,-0.032990977,-0.012207031,0.33544922,0.0048828125,0.94189453
17/07/11 05:07:06:723,4999,-0.56469727,0.1171875,0.74316406,1.786834,-2.6467278,-0.032990977,-0.012207031,0.33544922,0.0048828125,0.94189453
17/07/11 05:07:06:728,5004,-0.59472656,0.12084961,0.76953125,1.6985033,-2.5179565,-0.023412952,-0.0063476563,0.33544922,-0.0087890625,0.94189453
17/07/11 05:07:06:734,5010,-0.59472656,0.12084961,0.76953125,1.6985033,-2.5179565,-0.023412952,-0.0063476563,0.33544922,-0.0087890625,0.94189453
17/07/11 05:07:06:740,5016,-0.6171875,0.12524414,0.76904297,1.5580256,-2.3476806,-0.059596606,-4.8828125E-4,0.33544922,-0.022460938,0.94140625
17/07/11 05:07:06:745,5021,-0.6171875,0.12524414,0.76904297,1.5580256,-2.3476806,-0.059596606,-4.8828125E-4,0.33544922,-0.022460938,0.94140625
17/07/11 05:07:06:751,5027,-0.47021484,0.14257813,0.7561035,1.4313828,-2.1529274,-0.123450115,0.0043945313,0.33544922,-0.03466797,0.94140625
17/07/11 05:07:06:755,5031,-0.47021484,0.14257813,0.7561035,1.4313828,-2.1529274,-0.123450115,0.0043945313,0.33544922,-0.03466797,0.94140625
17/07/11 05:07:06:760,5036,-0.5349121,0.19458008,0.7854004,1.2217305,-1.88155,-0.06066083,0.013183594,0.3310547,-0.044433594,0.9423828
17/07/11 05:07:06:766,5042,-0.5349121,0.19458008,0.7854004,1.2217305,-1.88155,-0.06066083,0.013183594,0.3310547,-0.044433594,0.9423828
17/07/11 05:07:06:771,5047,-0.5895996,0.13671875,0.7624512,1.0003716,-1.6293286,-0.07768843,0.019042969,0.32958984,-0.053710938,0.94189453
17/07/11 05:07:06:777,5053,-0.5895996,0.13671875,0.7624512,1.0003716,-1.6293286,-0.07768843,0.019042969,0.32958984,-0.053710938,0.94189453
17/07/11 05:07:06:784,5060,-0.6064453,0.06225586,0.7692871,0.8439305,-1.4441534,-0.15431264,0.024902344,0.32910156,-0.061035156,0.94189453
17/07/11 05:07:06:789,5065,-0.6064453,0.06225586,0.7692871,0.8439305,-1.4441534,-0.15431264,0.024902344,0.32910156,-0.061035156,0.94189453
17/07/11 05:07:06:800,5076,-0.6064453,0.06225586,0.7692871,0.8439305,-1.4441534,-0.15431264,0.024902344,0.32910156,-0.061035156,0.94189453
17/07/11 05:07:06:805,5081,-0.6064453,0.06225586,0.7692871,0.8439305,-1.4441534,-0.15431264,0.024902344,0.32910156,-0.061035156,0.94189453
17/07/11 05:07:06:810,5086,-0.5734863,0.05810547,0.76660156,0.80881107,-1.3462447,-0.23306529,0.030273438,0.32861328,-0.06738281,0.94140625
17/07/11 05:07:06:816,5092,-0.5476074,0.0043945313,0.76123047,0.704517,-1.1898037,-0.2830839,0.038085938,0.32373047,-0.0859375,0.94140625
17/07/11 05:07:06:821,5097,-0.57055664,0.0043945313,0.76123047,0.704517,-1.1898037,-0.2830839,0.038085938,0.32373047,-0.0859375,0.94140625
17/07/11 05:07:06:827,5103,-0.57055664,0.0043945313,0.76123047,0.704517,-1.1898037,-0.2830839,0.038085938,0.32373047,-0.0859375,0.94140625
17/07/11 05:07:06:832,5108,-0.57055664,0.0043945313,0.76123047,0.704517,-1.1898037,-0.2830839,0.038085938,0.32373047,-0.0859375,0.94140625
17/07/11 05:07:06:837,5113,-0.57055664,0.0043945313,0.76123047,0.704517,-1.1898037,-0.2830839,0.038085938,0.32373047,-0.0859375,0.94140625
17/07/11 05:07:06:842,5118,-0.57055664,0.0043945313,0.76123047,0.704517,-1.1898037,-0.2830839,0.038085938,0.32373047,-0.0859375,0.94140625
17/07/11 05:07:06:847,5123,-0.57055664,0.0043945313,0.76123047,0.704517,-1.1898037,-0.2830839,0.038085938,0.32373047,-0.0859375,0.94140625
17/07/11 05:07:06:852,5128,-0.5444336,-0.00390625,0.76708984,0.7534714,-1.2430149,-0.2969188,0.037597656,0.3203125,-0.09277344,0.94189453
17/07/11 05:07:06:857,5133,-0.55078125,0.03149414,0.7668457,0.8173249,-1.3175107,-0.28946924,0.037597656,0.3203125,-0.09277344,0.94189453
17/07/11 05:07:06:862,5138,-0.5661621,0.079589844,0.7751465,0.7204804,-1.205767,-0.3863137,0.049316406,0.31152344,-0.1171875,0.94140625
17/07/11 05:07:06:872,5148,-0.5661621,0.079589844,0.7751465,0.7204804,-1.205767,-0.3863137,0.049316406,0.31152344,-0.1171875,0.94140625
17/07/11 05:07:06:878,5154,-0.5480957,0.052978516,0.7817383,0.6566269,-1.1333997,-0.43952498,0.049316406,0.31152344,-0.1171875,0.94140625
17/07/11 05:07:06:884,5160,-0.5480957,0.052978516,0.7817383,0.6566269,-1.1333997,-0.43952498,0.052734375,0.3095703,-0.123046875,0.94140625
17/07/11 05:07:06:890,5166,-0.5383301,0.0146484375,0.78149414,0.63747084,-1.1259501,-0.47783706,0.05517578,0.30664063,-0.12792969,0.94140625
17/07/11 05:07:06:895,5171,-0.5383301,0.0146484375,0.78149414,0.63747084,-1.1259501,-0.47783706,0.05517578,0.30664063,-0.12792969,0.94140625
17/07/11 05:07:06:901,5177,-0.53881836,-0.028320313,0.7763672,0.6736545,-1.1951247,-0.49273622,0.055664063,0.30322266,-0.13378906,0.94140625
17/07/11 05:07:06:906,5182,-0.5407715,-0.0026855469,0.77783203,0.6736545,-1.1951247,-0.49273622,0.055664063,0.30322266,-0.13378906,0.94140625
17/07/11 05:07:06:911,5187,-0.5407715,-0.0026855469,0.77783203,0.7630494,-1.3175107,-0.50125,0.0546875,0.30126953,-0.140625,0.94140625
17/07/11 05:07:06:923,5199,-0.5407715,0.009521484,0.78222656,0.8386094,-1.451603,-0.51827765,0.0546875,0.29833984,-0.14746094,0.94091797
17/07/11 05:07:06:928,5204,-0.54052734,0.02734375,0.7873535,0.89288485,-1.5473833,-0.54488325,0.055664063,0.29589844,-0.15527344,0.9404297
17/07/11 05:07:06:933,5209,-0.54052734,0.02734375,0.7873535,0.89288485,-1.5473833,-0.54488325,0.055664063,0.29589844,-0.15527344,0.9404297
17/07/11 05:07:06:939,5215,-0.54052734,0.02734375,0.7873535,0.89288485,-1.5473833,-0.54488325,0.055664063,0.29589844,-0.16308594,0.9399414
17/07/11 05:07:06:946,5222,-0.53930664,0.049560547,0.79663086,0.9184263,-1.5878239,-0.58000267,0.05810547,0.29345703,-0.16308594,0.9399414
17/07/11 05:07:06:951,5227,-0.54956055,0.08935547,0.7949219,0.9045913,-1.5612183,-0.62895703,0.061035156,0.29003906,-0.17041016,0.9394531
17/07/11 05:07:06:956,5232,-0.54956055,0.08935547,0.7949219,0.9045913,-1.5612183,-0.62895703,0.061035156,0.29003906,-0.17041016,0.9394531
17/07/11 05:07:06:962,5238,-0.53881836,0.104003906,0.8010254,0.8279671,-1.4877867,-0.7130308,0.064453125,0.28710938,-0.17822266,0.93896484
17/07/11 05:07:06:968,5244,-0.5209961,0.08642578,0.8027344,0.7396364,-1.3962634,-0.79178345,0.06689453,0.2841797,-0.18554688,0.9379883
17/07/11 05:07:06:973,5249,-0.5209961,0.08642578,0.8027344,0.7396364,-1.3962634,-0.79178345,0.06689453,0.2841797,-0.18554688,0.9379883
17/07/11 05:07:06:978,5254,-0.51782227,0.100097656,0.8051758,0.67046183,-1.2791985,-0.85350853,0.06933594,0.27978516,-0.19189453,0.9379883
17/07/11 05:07:06:984,5260,-0.51782227,0.100097656,0.8051758,0.67046183,-1.2791985,-0.85350853,0.06933594,0.27978516,-0.19189453,0.9379883
17/07/11 05:07:06:990,5266,-0.51708984,0.083496094,0.8071289,0.59170914,-1.177033,-0.91949046,0.07080078,0.2758789,-0.19824219,0.9375
17/07/11 05:07:06:996,5272,-0.51708984,0.083496094,0.8071289,0.59170914,-1.177033,-0.91949046,0.07080078,0.2758789,-0.19824219,0.9375
17/07/11 05:07:07:001,5277,-0.51708984,0.083496094,0.8071289,0.59170914,-1.177033,-0.91949046,0.07080078,0.2758789,-0.19824219,0.9375
17/07/11 05:07:07:011,5287,-0.51708984,0.083496094,0.8071289,0.59170914,-1.177033,-0.91949046,0.07080078,0.2758789,-0.19824219,0.9375
17/07/11 05:07:07:017,5293,-0.51708984,0.083496094,0.8071289,0.59170914,-1.177033,-0.91949046,0.07080078,0.2758789,-0.19824219,0.9375
17/07/11 05:07:07:022,5298,-0.50805664,0.045166016,0.81030273,0.54062635,-1.1333997,-0.99398625,0.071777344,0.27197266,-0.20361328,0.9375
17/07/11 05:07:07:027,5303,-0.45654297,0.0146484375,0.8137207,0.5331768,-1.1844826,-1.1142436,0.07373047,0.26171875,-0.21435547,0.9379883
17/07/11 05:07:07:032,5308,-0.42529297,-0.0021972656,0.8149414,0.59064496,-1.3185749,-1.1163721,0.072753906,0.2553711,-0.22021484,0.93847656
17/07/11 05:07:07:037,5313,-0.42358398,0.02758789,0.83032227,0.67046183,-1.4675664,-1.0855097,0.071777344,0.24951172,-0.22705078,0.93847656
17/07/11 05:07:07:042,5318,-0.42358398,0.02758789,0.83032227,0.67046183,-1.4675664,-1.0855097,0.071777344,0.24951172,-0.22705078,0.93847656
17/07/11 05:07:07:048,5324,-0.45385742,0.06689453,0.8405762,0.71409506,-1.5590898,-1.0748674,0.071777344,0.24316406,-0.234375,0.93847656
17/07/11 05:07:07:053,5329,-0.45385742,0.06689453,0.8405762,0.71409506,-1.5590898,-1.0748674,0.071777344,0.24316406,-0.234375,0.93847656
17/07/11 05:07:07:058,5334,-0.45385742,0.06689453,0.8405762,0.71409506,-1.5590898,-1.0748674,0.071777344,0.24316406,-0.234375,0.93847656
17/07/11 05:07:07:064,5340,-0.45385742,0.06689453,0.8405762,0.71409506,-1.5590898,-1.0748674,0.071777344,0.24316406,-0.234375,0.93847656
17/07/11 05:07:07:070,5346,-0.45385742,0.06689453,0.8405762,0.71409506,-1.5590898,-1.0748674,0.071777344,0.24316406,-0.234375,0.93847656
17/07/11 05:07:07:076,5352,-0.45385742,0.06689453,0.8405762,0.71409506,-1.5590898,-1.0748674,0.071777344,0.24316406,-0.234375,0.93847656
17/07/11 05:07:07:085,5361,-0.39208984,0.08154297,0.8532715,0.5853238,-1.4718233,-1.2664279,0.07861328,0.2241211,-0.25585938,0.9370117
17/07/11 05:07:07:091,5367,-0.38452148,0.09887695,0.85717773,0.534241,-1.3813642,-1.295162,0.07910156,0.21728516,-0.2626953,0.93652344
17/07/11 05:07:07:097,5373,-0.3984375,0.064208984,0.85546875,0.534241,-1.3813642,-1.295162,0.07910156,0.21728516,-0.2626953,0.93652344
17/07/11 05:07:07:103,5379,-0.3984375,0.064208984,0.85546875,0.45868102,-1.2781343,-1.3356025,0.07910156,0.2109375,-0.26953125,0.93603516
17/07/11 05:07:07:109,5385,-0.3635254,0.08984375,0.8691406,0.40972665,-1.1802256,-1.3877496,0.079589844,0.20361328,-0.27490234,0.93603516
17/07/11 05:07:07:114,5390,-0.3635254,0.08984375,0.8691406,0.40972665,-1.1802256,-1.3877496,0.079589844,0.20361328,-0.27490234,0.93603516
17/07/11 05:07:07:119,5395,-0.3630371,0.09448242,0.87060547,0.32990977,-1.0333626,-1.4377681,0.080078125,0.19628906,-0.28076172,0.93603516
17/07/11 05:07:07:124,5400,-0.3630371,0.09448242,0.87060547,0.32990977,-1.0333626,-1.4377681,0.080078125,0.19628906,-0.28076172,0.93603516
17/07/11 05:07:07:129,5405,-0.3449707,0.06518555,0.8696289,0.26073515,-0.9088482,-1.5026858,0.07910156,0.1899414,-0.28515625,0.93603516
17/07/11 05:07:07:135,5411,-0.3449707,0.06518555,0.8696289,0.26073515,-0.9088482,-1.5026858,0.07910156,0.1899414,-0.28515625,0.93603516
17/07/11 05:07:07:141,5417,-0.3166504,0.08105469,0.8762207,0.21816614,-0.80881107,-1.5548328,0.078125,0.18164063,-0.28955078,0.93652344
17/07/11 05:07:07:146,5422,-0.29833984,0.07104492,0.87719727,0.17878982,-0.7353795,-1.6016588,0.07714844,0.17333984,-0.29296875,0.9370117
17/07/11 05:07:07:151,5427,-0.29833984,0.07104492,0.87719727,0.17878982,-0.7353795,-1.6016588,0.07714844,0.17333984,-0.29296875,0.9370117
17/07/11 05:07:07:157,5433,-0.29833984,0.07104492,0.87719727,0.17878982,-0.7353795,-1.6016588,0.07714844,0.17333984,-0.29296875,0.9370117
17/07/11 05:07:07:162,5438,-0.25805664,0.055908203,0.8869629,0.15218419,-0.68536097,-1.6442277,0.075683594,0.16455078,-0.29638672,0.9375
17/07/11 05:07:07:169,5445,-0.24438477,0.064453125,0.8874512,0.13196391,-0.64172775,-1.6601912,0.07324219,0.15576172,-0.2993164,0.9379883
17/07/11 05:07:07:174,5450,-0.24438477,0.064453125,0.8874512,0.13196391,-0.64172775,-1.6601912,0.07324219,0.15576172,-0.2993164,0.9379883
17/07/11 05:07:07:179,5455,-0.2529297,0.04296875,0.8894043,0.10429406,-0.6023514,-1.668705,0.07080078,0.14794922,-0.3022461,0.93896484
17/07/11 05:07:07:185,5461,-0.2529297,0.04296875,0.8894043,0.10429406,-0.6023514,-1.668705,0.07080078,0.14794922,-0.3022461,0.93896484
17/07/11 05:07:07:190,5466,-0.27294922,0.047851563,0.888916,0.08407378,-0.5470117,-1.7080812,0.068359375,0.13916016,-0.30517578,0.9394531
17/07/11 05:07:07:195,5471,-0.27294922,0.047851563,0.888916,0.08407378,-0.5470117,-1.7080812,0.068359375,0.13916016,-0.30517578,0.9394531
17/07/11 05:07:07:200,5476,-0.22851563,0.0715332,0.8991699,0.05640393,-0.46293792,-1.7889624,0.06640625,0.12988281,-0.3071289,0.9399414
17/07/11 05:07:07:206,5482,-0.22851563,0.0715332,0.8991699,0.05640393,-0.46293792,-1.7889624,0.06640625,0.12988281,-0.3071289,0.9399414
17/07/11 05:07:07:211,5487,-0.18920898,0.051757813,0.8898926,0.020220276,-0.36609343,-1.8368526,0.064941406,0.118652344,-0.30908203,0.94091797
17/07/11 05:07:07:216,5492,-0.18920898,0.051757813,0.8898926,0.020220276,-0.36609343,-1.8368526,0.064941406,0.118652344,-0.30908203,0.94091797
17/07/11 05:07:07:221,5497,-0.18920898,0.051757813,0.8898926,0.020220276,-0.36609343,-1.8368526,0.064941406,0.118652344,-0.30908203,0.94091797
17/07/11 05:07:07:226,5502,-0.18920898,0.051757813,0.8898926,0.020220276,-0.36609343,-1.8368526,0.064941406,0.118652344,-0.30908203,0.94091797
17/07/11 05:07:07:232,5508,-0.18920898,0.051757813,0.8898926,0.020220276,-0.36609343,-1.8368526,0.064941406,0.118652344,-0.30908203,0.94091797
17/07/11 05:07:07:237,5513,-0.18920898,0.051757813,0.8898926,0.020220276,-0.36609343,-1.8368526,0.064941406,0.118652344,-0.30908203,0.94091797
17/07/11 05:07:07:242,5518,-0.060058594,0.056396484,0.91552734,0.0010642251,-0.29585457,-1.8208891,0.061523438,0.10888672,-0.31054688,0.94189453
17/07/11 05:07:07:247,5523,-0.14160156,0.057128906,0.9140625,-0.019156052,-0.22135882,-1.73043,0.061523438,0.10888672,-0.31054688,0.94189453
17/07/11 05:07:07:252,5528,-0.111083984,0.056396484,0.91015625,-0.0063853506,-0.21923037,-1.7953477,0.048828125,0.07373047,-0.31347656,0.9453125
